
,aX,aY,aZ,roll,pitch,yaw
0,-0.17217865666553017,-0.264026402640264,0.41424142414241427,-0.23414704607828976,-0.03973509933774834,0.9311196686768873
1,-0.09785202863961814,-0.297029702970297,0.4113411341134114,-0.2519139101545573,-0.033241175335948045,0.9304657414807819
2,-0.1517217865666553,-0.29062906290629065,0.4163416341634164,-0.2519139101545573,-0.033241175335948045,0.9304657414807819
3,-0.1517217865666553,-0.29062906290629065,0.4163416341634164,-0.25343059367326304,-0.03748472963415418,0.9302477657487467
4,-0.1459256733719741,-0.28822882288228824,0.39113911391139117,-0.26238624873609706,-0.038256284961100756,0.9271961055002543
5,-0.08319127173542448,-0.29412941294129413,0.3813381338133814,-0.27459193991044345,-0.02655436250241111,0.9271961055002543
6,0.03034435731333106,-0.29412941294129413,0.3813381338133814,-0.27459193991044345,-0.02655436250241111,0.9250163481799026
7,0.03034435731333106,-0.32893289328932895,0.4308430843084308,-0.2696085512061245,0.003536295248505112,0.9257429339533532
8,-0.09580634162973066,-0.4225422542254226,0.715971597159716,-0.22706918965766285,0.003536295248505112,0.9257429339533532
9,-1.0,-0.4225422542254226,0.715971597159716,-0.22706918965766285,-0.005465183565871536,0.9412918695051952
10,-1.0,-0.6615661566156616,1.0,-0.22880254225046942,-0.07522664437729056,0.9619269054711908
11,0.9798840777361064,-1.0,1.0,-0.31973133034811496,0.05503761332218865,0.9619269054711908
12,-0.1316058643027617,-1.0,1.0,-0.31973133034811496,0.05503761332218865,0.9584392937586282
13,-0.1316058643027617,-1.0,0.10841084108410841,-0.5085945399393327,0.11644055809168649,0.9722444234541888
14,0.1496760995567678,-0.5611561156115612,-0.8362836283628363,-0.9872165246280513,0.11644055809168649,0.9722444234541888
15,-0.3150357995226731,-0.5611561156115612,-0.8362836283628363,-0.9872165246280513,0.015752587925159135,0.9803821841168351
16,-0.3150357995226731,-0.0025002500250025004,-0.7516751675167517,-0.1661129568106312,-1.0,0.9952045338952263
17,-0.35663143539038533,0.33993399339934,-0.30913091309130913,1.0,-1.0,0.9952045338952263
18,-0.010228435049437436,0.33993399339934,-0.30913091309130913,1.0,-0.1082106346042564,1.0
19,-0.010228435049437436,0.4796479647964797,-0.048904890489048905,0.7098078867542973,0.04841509676589725,0.9890285548208967
20,0.023184452778724857,0.5119511951195119,-0.0215021502150215,0.6730463671818575,0.04841509676589725,0.9890285548208967
21,0.007159904534606206,0.5119511951195119,-0.0215021502150215,0.6730463671818575,0.1283353693821128,0.9744241807745405
22,0.007159904534606206,0.510951095109511,-0.14061406140614063,0.7576195291058789,0.019095994341927602,0.9654871757610985
23,0.11387657688373679,0.48624862486248627,-0.11661166116611663,0.7458471760797342,0.019095994341927602,0.9654871757610985
24,0.11387657688373679,0.48624862486248627,-0.11661166116611663,0.7458471760797342,0.1100752266443773,0.9598924653055294

0,-0.24356333676622038,-0.13101310131013102,0.46154615461546156,-0.09863238167265395,-0.08407219759341356,0.9522769554315297
1,-0.33676622039134907,-0.13101310131013102,0.46154615461546156,-0.09863238167265395,-0.08407219759341356,0.9468575588449406
2,-0.33676622039134907,-0.15861586158615862,0.47734773477347736,-0.11621604588138906,-0.11668777707409754,0.9445927363908437
3,-0.4021627188465499,-0.20302030203020305,0.4831483148314832,-0.13720299993697613,-0.11668777707409754,0.9445927363908437
4,-0.3223480947476828,-0.20302030203020305,0.4831483148314832,-0.13720299993697613,-0.11415452818239392,0.9445118498746259
5,-0.3223480947476828,-0.20602060206020603,0.43224322432243223,-0.1573706434738766,-0.1162127929069031,0.9464531262638519
6,-0.2409886714727085,-0.22592259225922592,0.42564256425642566,-0.17426104493603076,-0.09262191260291323,0.9509827711720455
7,-0.06127703398558187,-0.22592259225922592,0.42564256425642566,-0.17426104493603076,-0.09262191260291323,0.9509827711720455
8,-0.06127703398558187,-0.25922592259225924,0.4170417041704171,-0.1956261423079347,-0.024540848638378722,0.9615789047965704
9,0.049433573635427386,-0.3408340834083408,0.5706570657065707,-0.19650847671267413,0.006016466117796074,0.9615789047965704
10,-1.0,-0.3408340834083408,0.5706570657065707,-0.19650847671267413,0.006016466117796074,0.9752487260373696
11,-1.0,-0.549054905490549,1.0,-0.17905086027604464,-0.15357821405953134,0.9966836528350724
12,-0.3069001029866117,-1.0,1.0,-0.2610449360307557,0.01836605446485117,1.0
13,0.0345005149330587,-1.0,1.0,-0.2610449360307557,0.01836605446485117,1.0
14,0.0345005149330587,-1.0,0.6018601860186019,-0.33453078716833684,0.02834072197593414,0.9909407101836125
15,-0.01905252317198764,-0.8582858285828583,-0.39683968396839686,-0.6694397176529905,-0.00015832805573147562,0.978322413653644
16,0.5849639546858908,-0.8582858285828583,-0.39683968396839686,-0.6694397176529905,-0.00015832805573147562,0.978322413653644
17,0.5849639546858908,-0.23572357235723573,-0.9317931793179318,-1.0,0.09183027232425586,0.9646525924128448
18,0.5998970133882595,0.17711771177117713,-0.6242624262426243,0.6425285183084389,1.0,0.9646525924128448
19,0.06539649845520082,0.17711771177117713,-0.6242624262426243,0.6425285183084389,1.0,0.9603656070533043
20,0.06539649845520082,0.41144114411441146,-0.06090609060906091,0.6870864057477785,0.38742875237492086,0.9578581250505541
21,-0.03141091658084449,0.48654865486548654,-0.1636163616361636,0.6581584420495369,0.05842305256491451,0.9578581250505541
22,0.05046343975283213,0.48654865486548654,-0.1636163616361636,0.6581584420495369,0.05842305256491451,0.954703550918062
23,0.05046343975283213,0.4535453545354536,-0.1999199919991999,0.7173378710531292,0.02422419252691577,0.9512254307206989
24,0.11431513903192585,0.4820482048204821,-0.25162516251625167,0.738765992311086,0.08233058898036733,0.9530049340774892

0,-0.05827360548457463,-0.1706170617061706,0.4673467346734673,-0.13393273393273392,-0.028249885163068443,0.9199866365990145
1,-0.0816453723901527,-0.16921692169216923,0.4604460446044605,-0.133999333999334,-0.037666513550757924,0.9195690303182159
2,-0.0825802430663758,-0.16921692169216923,0.4604460446044605,-0.133999333999334,-0.037666513550757924,0.9195690303182159
3,-0.0825802430663758,-0.16851685168516853,0.4402440244024403,-0.1387945387945388,-0.03536977491961415,0.9183162114758205
4,-0.13867248363976314,-0.16781678167816783,0.4081408140814082,-0.14891774891774892,-0.06258612769866789,0.9183162114758205
5,-0.0779058896852602,-0.16781678167816783,0.4081408140814082,-0.14891774891774892,-0.06258612769866789,0.9167293076087865
6,-0.0779058896852602,-0.1865186518651865,0.3592359235923593,-0.17855477855477853,-0.04834634818557648,0.9139731061555166
7,-0.2468058585229043,-0.25162516251625167,0.35243524352435246,-0.2303030303030303,-0.04834634818557648,0.9139731061555166
8,0.046431910252415075,-0.25162516251625167,0.35243524352435246,-0.2303030303030303,-0.11449242076251724,0.9180656477073414
9,0.046431910252415075,-0.34793479347934797,0.5264526452645265,-0.22097902097902097,0.021244832338079927,0.9238286143823603
10,-0.013088189467123713,-0.44244424442444247,0.7336733673367337,-0.21385281385281385,0.021244832338079927,0.9238286143823603
11,-0.017450919289498285,-0.44244424442444247,0.7336733673367337,-0.21385281385281385,0.011368856224161691,0.9323477825106489
12,-0.017450919289498285,-0.7397739773977398,1.0,-0.22624042624042623,0.0010335323840146991,0.9340182076338428
13,1.0,-1.0,1.0,-0.2933066933066933,0.13883785025264125,0.9465463960577967
14,-0.412277968214397,-1.0,1.0,-0.2933066933066933,0.13883785025264125,0.9465463960577967
15,-0.412277968214397,-1.0,0.20782078207820784,-0.48864468864468863,-0.3179834634818558,0.9939029483003424
16,-0.6625116858834528,-0.6092609260926093,-0.5842584258425843,-0.8395604395604396,-0.1681212677997244,0.9939029483003424
17,0.47491430352134617,-0.6092609260926093,-0.5842584258425843,-0.8395604395604396,-0.1681212677997244,1.0
18,0.47491430352134617,-0.12471247124712473,-0.6116611661166117,-0.56010656010656,1.0,0.9803725048024722
19,0.06325958242443128,0.24652465246524652,-0.5996599659965997,1.0,1.0,0.9803725048024722
20,0.03645995637270177,0.24652465246524652,-0.5996599659965997,1.0,0.11954524575103354,0.9866365990144491
21,0.03645995637270177,0.4077407740774078,-0.25012501250125013,0.8431568431568431,0.06924666972898484,0.9874718115760461
22,0.24119663446556558,0.4895489548954896,-0.09430943094309431,0.6786546786546787,0.06924666972898484,0.9874718115760461
23,0.12527267061389838,0.4895489548954896,-0.09430943094309431,0.6786546786546787,0.4064079007808912,0.9835463125365406
24,0.12527267061389838,0.4898489848984898,-0.13181318131813183,0.6857142857142856,0.25068902158934314,0.9835463125365406

0,-0.09024856596558317,-0.26622662266226627,0.4192419241924193,-0.23475453144492547,-0.02204510768187214,0.9394162977537301
1,-0.06233269598470363,-0.26622662266226627,0.4192419241924193,-0.23475453144492547,-0.02204510768187214,0.9377766847024102
2,-0.06233269598470363,-0.26782678267826787,0.4224422442244225,-0.2372495780435899,-0.015516364253010007,0.9360550909985244
3,-0.02523900573613767,-0.2757275727572757,0.42824282428242827,-0.23959785719527407,-0.009496354078344923,0.9360550909985244
4,-0.03824091778202677,-0.2757275727572757,0.42824282428242827,-0.23959785719527407,-0.009496354078344923,0.9335956714215444
5,-0.03824091778202677,-0.25902590259025904,0.3813381338133814,-0.24979819476040213,-0.022469052060369678,0.9337596327266765
6,0.014149139579349905,-0.27842784278427846,0.39823982398239827,-0.25508182285169145,0.00525691029336951,0.9343334972946384
7,0.043594646271510516,-0.27842784278427846,0.39823982398239827,-0.25508182285169145,0.00525691029336951,0.9343334972946384
8,0.043594646271510516,-0.29672967296729674,0.3677367736773678,-0.2798121376678653,0.018483974902492796,0.9372848007870143
9,-0.0734225621414914,-0.3302330233023303,0.3924392439243925,-0.2918470683202466,-0.017720875021197218,0.9390883751434661
10,0.05736137667304016,-0.3302330233023303,0.3924392439243925,-0.2918470683202466,-0.017720875021197218,0.9390883751434661
11,0.05736137667304016,-0.3805380538053805,0.3801380138013801,-0.3242826741028839,0.018483974902492796,0.941629775373012
12,0.3678776290630975,-0.45464546454645466,0.40784078407840785,-0.3548836867982681,0.06859420044090216,0.9440072142974258
13,-0.06998087954110899,-0.5710571057105711,0.40784078407840785,-0.3548836867982681,0.06859420044090216,0.9440072142974258
14,-0.06998087954110899,-0.5710571057105711,0.9482948294829483,-0.25023849710134294,-0.02153637442767509,0.9449909821282176
15,0.7307839388145315,-0.9448944894489449,1.0,-0.30072649886255226,0.06571137866711887,0.9601574028529267
16,0.19579349904397708,-0.9448944894489449,1.0,-0.30072649886255226,0.06571137866711887,0.9601574028529267
17,0.19579349904397708,-1.0,0.9117911791179119,-0.33624422103177515,0.018399186026793284,0.9785210690277094
18,-0.6665391969407266,-1.0,-0.0011001100110011003,-0.6025537535774564,-0.5329828726471088,1.0
19,1.0,-1.0,-0.0011001100110011003,-0.6025537535774564,-0.5329828726471088,1.0
20,1.0,-0.5691569156915691,-0.7482748274827482,-1.0,0.16194675258606073,0.9878668634202328
21,0.631357552581262,0.04580458045804581,-0.7007700770077008,0.26330079988258603,1.0,0.9795048368585014
22,-0.3235181644359465,0.04580458045804581,-0.7007700770077008,0.26330079988258603,1.0,0.9795048368585014
23,-0.3235181644359465,0.4395439543954396,-0.27322732273227324,0.904527775739341,-0.15092419874512464,0.9918019347434005
24,0.25162523900573613,0.46824682468246825,0.020802080208020803,0.6648565348205767,0.5501102255384094,0.9935235284472864

0,-0.4272770624701956,-0.12091209120912091,0.40644064406440644,-0.10263743247537337,-0.1671007539410555,0.945849572933079
1,-0.35717691940867907,-0.12571257125712573,0.40644064406440644,-0.10263743247537337,-0.1671007539410555,0.945849572933079
2,-0.35717691940867907,-0.12571257125712573,0.33503350335033505,-0.12774070543374644,-0.16394790952707333,0.9542250601210713
3,-0.1235097758702909,-0.2518251825182518,0.40544054405440544,-0.19135684779154752,-0.07141877998629198,0.9619371423832822
4,-0.2145922746781116,-0.3284328432843285,0.40544054405440544,-0.19135684779154752,-0.07141877998629198,0.9619371423832822
5,-0.2145922746781116,-0.3284328432843285,0.3896389638963897,-0.24563075945344773,-0.06031528444139822,0.9753710921303591
6,-0.23652837386742967,-0.4164416441644165,0.5463546354635465,-0.2340006355258977,-0.07059629883481837,0.9875611576415955
7,-0.20362422508345254,-0.4164416441644165,0.5463546354635465,-0.2340006355258977,-0.07059629883481837,0.9875611576415955
8,-0.20362422508345254,-0.42544254425442546,0.5907590759075908,-0.22059103908484273,-0.05784784098697738,0.9966000497553694
9,-0.430138292799237,-0.5210521052105211,0.9366936693669367,-0.18932316491897044,-0.07470870459218643,1.0
10,0.052455889365760615,-1.0,0.9366936693669367,-0.18932316491897044,-0.07470870459218643,1.0
11,0.052455889365760615,-1.0,1.0,-0.27238639974578965,-0.025222755311857435,0.9822539182353429
12,-0.7978063900810682,-1.0,1.0,-0.28522402287893234,-0.13817683344756682,0.9680736379467617
13,-1.0,-1.0,1.0,-0.28522402287893234,-0.13817683344756682,0.9680736379467617
14,-1.0,-1.0,-0.3624362436243625,-0.6284080076263108,-0.5683344756682659,0.9455178704701882
15,0.9957081545064378,-0.32003200320032005,-1.0,-1.0,0.13858807402330361,0.9103574094037649
16,0.5345731998092513,0.22452245224522452,-1.0,-1.0,0.13858807402330361,0.9103574094037649
17,0.5345731998092513,0.22452245224522452,-0.542954295429543,0.8361614235780108,0.2441398217957505,0.9149183182685131
18,-0.5288507391511683,0.4535453545354536,-0.14311431143114312,0.7602160788052114,-0.14187799862919806,0.927523011858363
19,0.14210777300906058,0.5226522652265226,-0.14311431143114312,0.7602160788052114,-0.14187799862919806,0.927523011858363
20,0.14210777300906058,0.5226522652265226,-0.0009000900090009,0.5672704162694631,1.0,0.9295961522514304
21,0.2765855984740105,0.4945494549454946,-0.075007500750075,0.6190022243406419,0.480603152844414,0.9311717389501617
22,0.1587982832618026,0.5017501750175017,-0.075007500750075,0.6190022243406419,0.480603152844414,0.9311717389501617
23,0.1587982832618026,0.5017501750175017,-0.18121812181218125,0.6773435017476962,0.19849211788896504,0.9346546148105149
24,0.05722460658082976,0.4669466946694669,-0.15551555155515553,0.6855417858277726,0.06812885538039752,0.9407911103739945

0,-0.24735089312745986,-0.1772177217721772,0.443044304430443,-0.13653021926827752,-0.2003123779773526,0.9265646731571628
1,-0.24735089312745986,-0.1772177217721772,0.443044304430443,-0.13653021926827752,-0.2003123779773526,0.9265646731571628
2,-0.24735089312745986,-0.19851985198519853,0.44194419441944194,-0.1493881607553264,-0.20109332292073412,0.927213722763097
3,-0.2649106872540115,-0.20122012201220124,0.3783378337833783,-0.16423380334182247,-0.23115970324092153,0.927213722763097
4,-0.3533151680290645,-0.20122012201220124,0.3783378337833783,-0.16423380334182247,-0.23115970324092153,0.9276773296244785
5,-0.3533151680290645,-0.2222222222222222,0.41674167416741675,-0.17578731598235914,-0.2899258102303788,0.9302735280482152
6,-0.1952770208900999,-0.26142614261426145,0.370937093709371,-0.21193862972855454,-0.18000780944943384,0.9302735280482152
7,-0.30820466242809563,-0.26142614261426145,0.370937093709371,-0.21193862972855454,-0.18000780944943384,0.9402874362540565
8,-0.30820466242809563,-0.30503050305030505,0.4524452445244525,-0.2016895459345301,-0.2643498633346349,0.954473806212332
9,-0.033605812897366034,-0.38673867386738675,0.45164516451645165,-0.2411951052860426,-0.2643498633346349,0.954473806212332
10,-0.5113533151680291,-0.38673867386738675,0.45164516451645165,-0.2411951052860426,-0.0677469738383444,0.9758924432081595
11,-0.5113533151680291,-0.5521552155215522,1.0,-0.18746505994161128,-0.20402186645841466,0.9970329160871582
12,-0.5249772933696639,-1.0,1.0,-0.269706192931238,-0.07008980866848886,0.9959202596198424
13,-1.0,-1.0,1.0,-0.269706192931238,-0.07008980866848886,0.9959202596198424
14,-1.0,-1.0,0.5296529652965297,-0.3599602459780111,-0.5218664584146818,1.0
15,0.1901301846805934,-0.9913991399139914,-0.6683668366836684,-0.7004161749176967,-0.5218664584146818,1.0
16,0.2861035422343324,-0.9913991399139914,-0.6683668366836684,-0.7004161749176967,-0.4328387348691918,0.9963838664812239
17,0.2861035422343324,-0.22002200220022003,-0.8656865686568658,-1.0,0.10113237016790316,0.9826611033843302
18,-0.09536784741144413,0.19591959195919592,-0.5740574057405741,0.5673644325734517,0.10113237016790316,0.9826611033843302
19,-0.10323947926127763,0.19591959195919592,-0.5740574057405741,0.5673644325734517,-0.37231550175712613,0.9918405192396847
20,-0.10323947926127763,0.4495449544954496,-0.13841384138413843,0.7170631716255668,-0.1872315501757126,0.9944367176634215
21,0.2903421132303966,0.4896489648964897,-0.05940594059405941,0.5997266910988259,-0.1872315501757126,0.9944367176634215
22,0.2903421132303966,0.4896489648964897,-0.05940594059405941,0.5997266910988259,1.0,0.9887807139545666
23,0.06721162579473207,0.49874987498749873,-0.1629162916291629,0.6640785141934281,0.18469347910972278,0.9890588780713955
24,0.030578262185891613,0.46474647464746477,-0.2006200620062006,0.6640785141934281,0.18469347910972278,0.9890588780713955

0,-0.1456766917293233,-0.17551755175517553,0.38933893389338936,-0.16465972128264106,-0.06528107127911842,0.9722438644331904
1,-0.14144736842105263,-0.17551755175517553,0.38933893389338936,-0.16465972128264106,-0.06528107127911842,0.9711725749902609
2,-0.14144736842105263,-0.20612061206120613,0.39923992399239927,-0.1822486808280341,-0.0679313711814758,0.9722438644331904
3,-0.2965225563909774,-0.20562056205620563,0.435943594359436,-0.17446894872141794,-0.0679313711814758,0.9722438644331904
4,-0.1832706766917293,-0.20562056205620563,0.435943594359436,-0.17446894872141794,-0.11493932208118288,0.9764316322555512
5,-0.1832706766917293,-0.25922592259225924,0.37213721372137215,-0.23312136382086324,-0.06500209234202818,0.9863654070899882
6,-0.25,-0.3138313831383138,0.3943394339433944,-0.25612231091868487,-0.06500209234202818,0.9863654070899882
7,-0.25,-0.3138313831383138,0.3943394339433944,-0.25612231091868487,-0.1202399218858976,0.9968835216205687
8,0.040413533834586464,-0.422942294229423,0.48124812481248125,-0.27384657015288866,0.040312456409541085,1.0
9,-0.10620300751879698,-0.5006500650065007,0.724972497249725,-0.27384657015288866,0.040312456409541085,1.0
10,-0.10620300751879698,-0.5006500650065007,0.724972497249725,-0.24130699499391153,-0.009903752266703864,0.9998052201012855
11,-0.043233082706766915,-0.8392839283928394,1.0,-0.24841022865647408,-0.01590179941414423,0.9936696532917803
12,1.0,-1.0,1.0,-0.3000270599377622,0.13432835820895525,0.9936696532917803
13,1.0,-1.0,1.0,-0.3000270599377622,0.13432835820895525,0.984514998052201
14,-0.9407894736842105,-1.0,-0.20422042204220425,-0.6238668651062103,-0.6310503556981448,0.9837358784573432
15,0.5521616541353384,-0.36793679367936794,-0.20422042204220425,-0.6238668651062103,-0.6310503556981448,0.9837358784573432
16,0.5521616541353384,-0.36793679367936794,-0.9136913691369137,-1.0,0.009624773329613614,0.9616283599532527
17,0.9995300751879699,0.16251625162516253,-0.4442444244424443,0.6595859829522392,0.9347189287208817,0.9616283599532527
18,-0.5357142857142857,0.44104410441044106,-0.4442444244424443,0.6595859829522392,0.9347189287208817,0.9428320997273081
19,-0.5357142857142857,0.44104410441044106,-0.25132513251325134,0.8126099309971587,-0.36337006556005025,0.9540319439033891
20,0.25798872180451127,0.49014901490149015,-0.0852085208520852,0.6411852252739819,0.6504393918259171,0.9477989871445266
21,0.4473684210526315,0.49014901490149015,-0.0852085208520852,0.6411852252739819,0.6504393918259171,0.9477989871445266
22,0.4473684210526315,0.47804780478047804,-0.009500950095009501,0.637599783520498,1.0,0.9381573821581612
23,0.3458646616541353,0.4894489448944894,-0.08490849084908492,0.6617507779732107,0.7002371320965268,0.9351382937280872
24,0.306390977443609,0.4894489448944894,-0.08490849084908492,0.6617507779732107,0.7002371320965268,0.9351382937280872

0,-0.18155619596541786,-0.17821782178217824,0.46394639463946397,-0.16661404893449092,-0.09283503927636277,0.9022654661632298
1,-0.14063400576368876,-0.17821782178217824,0.46394639463946397,-0.16661404893449092,-0.09283503927636277,0.9034272436828348
2,-0.14063400576368876,-0.18191819181918195,0.45974597459745975,-0.16961325966850826,-0.07426803142109022,0.9034272436828348
3,-0.14495677233429394,-0.17951795179517951,0.4670467046704671,-0.1660615627466456,-0.07426803142109022,0.9034272436828348
4,-0.17463976945244955,-0.17951795179517951,0.4670467046704671,-0.1660615627466456,-0.07474410854558439,0.9041533546325878
5,-0.17463976945244955,-0.17821782178217824,0.4241424142414241,-0.1781373322809787,-0.09497738633658653,0.9054603543421436
6,-0.12449567723342939,-0.19601960196019605,0.3584358435843585,-0.21412786108918705,-0.09497738633658653,0.9054603543421436
7,-0.1253602305475504,-0.19601960196019605,0.3584358435843585,-0.21412786108918705,-0.07367293501547252,0.9058960209119954
8,-0.1253602305475504,-0.20802080208020804,0.35993599359935996,-0.24759273875295976,-0.07938586050940252,0.9090909090909092
9,-0.21498559077809795,-0.34193419341934195,0.42474247424742473,-0.30189423835832674,-0.07938586050940252,0.9090909090909092
10,-0.21498559077809795,-0.34193419341934195,0.42474247424742473,-0.30189423835832674,-0.10176148536062843,0.9353761254719721
11,-0.18847262247838614,-0.46974697469746973,0.6976697669766978,-0.2644830307813733,-0.043323018328969294,0.9684867847807145
12,-1.0,-0.6100610061006101,1.0,-0.2644830307813733,-0.043323018328969294,0.9684867847807145
13,-1.0,-0.6100610061006101,1.0,-0.24293606945540647,-0.1974529873839562,1.0
14,-0.11498559077809797,-1.0,1.0,-0.34546172059984215,0.003808616995953345,0.945832123148417
15,-0.05446685878962535,-1.0,0.56995699569957,-0.4088397790055248,0.007855272554153773,0.945832123148417
16,-0.11930835734870315,-1.0,0.56995699569957,-0.4088397790055248,0.007855272554153773,0.8973279117049086
17,-0.11930835734870315,-1.0,-0.7121712171217122,-0.8951854775059195,-0.0027374434658414665,0.9130119082195759
18,0.5662824207492795,-0.16091609160916093,-0.8501850185018502,-0.8951854775059195,-0.0027374434658414665,0.9130119082195759
19,0.5662824207492795,-0.16091609160916093,-0.8501850185018502,-0.6625887924230466,1.0,0.8733662503630555
20,-0.06945244956772334,0.3047304730473047,-0.5096509650965096,1.0,-0.18900261842418473,0.868138251524833
21,0.05244956772334294,0.41554155415541555,-0.10641064106410641,1.0,-0.18900261842418473,0.868138251524833
22,0.05244956772334294,0.41554155415541555,-0.10641064106410641,0.8588792423046566,0.05046417519638182,0.8633459192564624
23,0.0893371757925072,0.46984698469846986,-0.18051805180518055,0.8384372533543805,0.16793620566531778,0.8520185884403138
24,0.17925072046109508,0.4164416441644165,-0.24692469246924695,0.8384372533543805,0.16793620566531778,0.8520185884403138

0,-0.4790005316321106,-0.14691469146914693,0.46224622462246223,-0.1060949502581539,-0.14112643381879106,0.901023890784983
1,-0.27006911217437535,-0.18081808180818082,0.46224622462246223,-0.1060949502581539,-0.14112643381879106,0.901023890784983
2,-0.27006911217437535,-0.18081808180818082,0.4910491049104911,-0.12624354615287747,-0.07591184430983373,0.8960466439135382
3,-0.2748538011695907,-0.18681868186818681,0.47434743474347435,-0.13556227175418714,-0.0830003866477639,0.8957622298065985
4,-0.27166400850611383,-0.20632063206320633,0.47434743474347435,-0.13556227175418714,-0.0830003866477639,0.8957622298065985
5,-0.27166400850611383,-0.20632063206320633,0.40444044404440443,-0.1622591613146959,-0.09163552004124242,0.8994596131968147
6,-0.2748538011695907,-0.23212321232123215,0.31643164316431643,-0.21458254627880619,-0.10439489624951669,0.9099829351535837
7,-0.06698564593301436,-0.30913091309130913,0.31643164316431643,-0.21458254627880619,-0.10439489624951669,0.9099829351535837
8,-0.06698564593301436,-0.30913091309130913,0.4731473147314732,-0.20601939302354869,-0.019074623018430208,0.9310295790671218
9,-0.28654970760233917,-0.3067306730673068,0.40574057405740577,-0.2279309910590606,-0.13519783477252223,0.9734072810011378
10,0.1850079744816587,-0.3977397739773978,0.40574057405740577,-0.2279309910590606,-0.13519783477252223,0.9734072810011378
11,0.1850079744816587,-0.3977397739773978,0.5038503850385039,-0.23680896612517316,0.01868797525454311,0.9835039817974972
12,-0.3774587985114301,-0.38183818381838186,0.5586558655865587,-0.22031230323636825,-0.08390256476350044,1.0
13,0.3689526847421585,-0.38183818381838186,0.5586558655865587,-0.22031230323636825,-0.08390256476350044,1.0
14,0.3689526847421585,-0.6104610461046105,0.9845984598459847,-0.21477143936531923,0.023456631009150665,0.9921786120591581
15,-0.4226475279106858,-0.9865986598659867,1.0,-0.2740209041682408,-0.08570692099497358,0.9921786120591581
16,-0.21584263689526847,-0.9865986598659867,1.0,-0.2740209041682408,-0.08570692099497358,0.9805176336746304
17,-0.21584263689526847,-1.0,0.823982398239824,-0.30122150862611763,-0.07217424925892511,0.918230944254835
18,0.1286549707602339,-1.0,-0.36703670367036706,-0.6259916887041934,0.23443742750354427,0.8791240045506258
19,0.4965443912812334,-1.0,-0.36703670367036706,-0.6259916887041934,0.23443742750354427,0.8791240045506258
20,0.4965443912812334,-0.2609260926092609,-0.8674867486748675,-1.0,0.05980152081453795,0.7812855517633676
21,1.0,0.17371737173717375,-0.5676567656765676,0.49445913612895104,0.05980152081453795,0.7812855517633676
22,-0.5933014354066987,0.17371737173717375,-0.5676567656765676,0.49445913612895104,1.0,0.7655005688282139
23,-0.5933014354066987,0.42654265426542654,-0.17701770177017703,0.7380052890064224,-0.2292821239850496,0.7869738339021617
24,0.3120680489101542,0.4742474247424743,-0.15901590159015902,0.7380052890064224,-0.2292821239850496,0.7869738339021617

0,-0.10071090047393365,-0.19821982198219823,0.46984698469846986,-0.15515126737530663,-0.12424913057224155,0.9642023346303502
1,-0.057760663507109004,-0.19821982198219823,0.46984698469846986,-0.15515126737530663,-0.12424913057224155,0.96
2,-0.057760663507109004,-0.23092309230923094,0.47654765476547656,-0.17525211229217771,-0.050901043313310156,0.9526848249027238
3,-0.12707345971563982,-0.22272227222722274,0.4257425742574258,-0.18622240392477515,-0.17072399620613343,0.9472373540856031
4,-0.11196682464454977,-0.22272227222722274,0.4257425742574258,-0.18622240392477515,-0.17072399620613343,0.9472373540856031
5,-0.11196682464454977,-0.24122412241224125,0.37373737373737376,-0.22076860179885527,-0.1925387290546949,0.9417898832684825
6,-0.26569905213270145,-0.2635263526352635,0.4008400840084008,-0.23937040065412923,-0.371798925071135,0.9417898832684825
7,-0.19549763033175355,-0.2635263526352635,0.4008400840084008,-0.23937040065412923,-0.371798925071135,0.938988326848249
8,-0.19549763033175355,-0.30503050305030505,0.36903690369036907,-0.2522485690923958,-0.23363895036357887,0.9378988326848249
9,-0.408175355450237,-0.3262326232623262,0.48084808480848085,-0.238280185336604,-0.42617767941827384,0.9557976653696497
10,-0.2103080568720379,-0.3262326232623262,0.48084808480848085,-0.238280185336604,-0.42617767941827384,0.9557976653696497
11,-0.2103080568720379,-0.4782478247824783,0.8101810181018103,-0.21375034069228674,-0.12393297502371167,0.969182879377432
12,-1.0,-0.9601960196019603,1.0,-0.2730307985827201,-0.533354410369902,0.9889494163424124
13,-0.11433649289099526,-0.9601960196019603,1.0,-0.2730307985827201,-0.533354410369902,0.9889494163424124
14,-0.11433649289099526,-1.0,0.9976997699769978,-0.30710002725538293,0.03699019917799557,0.9884824902723736
15,-0.1691350710900474,-1.0,-0.28772877287728776,-0.6516080675933497,-0.7865950047423332,1.0
16,0.05864928909952607,-1.0,-0.28772877287728776,-0.6516080675933497,-0.7865950047423332,1.0
17,0.05864928909952607,-0.3207320732073208,-0.7243724372437245,-1.0,0.0015807777426493836,0.9716731517509728
18,0.12085308056872039,0.07410741074107412,-0.6990699069906992,0.7400517852275825,0.7398039835599115,0.9716731517509728
19,-0.21682464454976305,0.07410741074107412,-0.6990699069906992,0.7400517852275825,0.7398039835599115,0.9567315175097276
20,-0.21682464454976305,0.3418341834183419,-0.27282728272827284,0.9111474516216953,-0.18178944040467912,0.9662256809338521
21,0.26569905213270145,0.4713471347134714,-0.1269126912691269,0.7162033251567185,0.8020866266202973,0.9662256809338521
22,0.23755924170616113,0.4713471347134714,-0.1269126912691269,0.7162033251567185,0.8020866266202973,0.9679377431906614
23,0.23755924170616113,0.4671467146714672,-0.11991199119911992,0.7128645407467976,1.0,0.9701167315175097
24,0.03199052132701422,0.4655465546554655,-0.20622062206220623,0.7725538293813028,0.235852039203288,0.9701167315175097

0,0.04953560371517028,-0.17271727172717272,0.46534653465346537,-0.13389729694005684,0.033949835317963015,-0.9903975146508509
1,0.014153029632905795,-0.17271727172717272,0.46534653465346537,-0.13389729694005684,0.033949835317963015,-0.9920214643790157
2,0.014153029632905795,-0.1622162216221622,0.4603460346034604,-0.12887449606767562,0.010640993159361541,-0.9932923815575797
3,-0.0022114108801415304,-0.15991599159915992,0.47044704470447046,-0.12358733725464278,-0.0040537116797567775,-0.9949163312857445
4,0.0008845643520566122,-0.15991599159915992,0.47044704470447046,-0.12358733725464278,-0.0040537116797567775,-0.9949163312857445
5,0.0008845643520566122,-0.16891689168916893,0.39133913391339137,-0.1518736369043685,-0.002280212819863187,-0.9970345265833511
6,0.08580274214949138,-0.25052505250525053,0.2733273327332733,-0.23395677747670343,0.08664808715480112,-0.9970345265833511
7,-0.10747456877487838,-0.25052505250525053,0.2733273327332733,-0.23395677747670343,0.08664808715480112,-1.0
8,-0.10747456877487838,-0.31693169316931696,0.5948594859485948,-0.18835503271429516,-0.06080567519635166,-0.9945632987361436
9,0.034498009730207876,-0.3558355835583558,0.40634063406340637,-0.26574581984006346,0.05776539143653407,-0.9945632987361436
10,0.12605042016806722,-0.3558355835583558,0.40634063406340637,-0.26574581984006346,0.05776539143653407,-0.9878556802937231
11,0.12605042016806722,-0.4973497349734973,0.5526552655265526,-0.27638622695129206,0.12135799341271852,-0.9857374849961168
12,1.0,-0.9995999599959997,1.0,-0.2940321194897892,0.20547251076767165,-0.9821365529901857
13,0.5616983635559487,-1.0,1.0,-0.2940321194897892,0.20547251076767165,-0.9821365529901857
14,0.5616983635559487,-1.0,1.0,-0.2983279360253784,0.10159614897390423,-0.96377886041093
15,-0.8367978770455552,-1.0,-0.0007000700070007002,-0.6396801268918115,-0.9967063592601977,-0.962507943232366
16,0.9509066784608581,-0.5826582658265826,-0.0007000700070007002,-0.6396801268918115,-0.9967063592601977,-0.962507943232366
17,0.9509066784608581,-0.5826582658265826,-1.0,-1.0,0.0706865974157588,-0.9687919226152653
18,0.00796107916850951,0.12181218121812182,-0.6488648864886488,0.8490516158879122,0.5571319989865721,-0.9618724846430841
19,-0.5515258735072976,0.12181218121812182,-0.6488648864886488,0.8490516158879122,0.5571319989865721,-0.9618724846430841
20,-0.5515258735072976,0.49264926492649264,-0.14291429142914291,0.6587138986187298,-1.0,-0.9499399844665678
21,0.12162759840778417,0.5214521452145214,0.10571057105710571,0.5353909193047386,0.38104889789713703,-0.9499399844665678
22,-0.05572755417956657,0.5214521452145214,0.10571057105710571,0.5353909193047386,0.38104889789713703,-0.9533290969427383
23,-0.05572755417956657,0.5203520352035204,-0.08570857085708572,0.6505848919436917,-0.1413731948315176,-0.9570006354585893
24,0.15479876160990713,0.47434743474347435,-0.0576057605760576,0.6776815808604851,0.6133772485431974,-0.9570006354585893

0,-0.060431166185707014,-0.017601760176017604,0.4924492449244925,-0.011953396883038281,-0.041054371785451876,-0.9894927536231884
1,-0.04447462230521134,0.025202520252025205,0.3985398539853986,0.025192918747162958,-0.039584864070536366,-0.9917391304347827
2,-0.00899677474113054,0.0313031303130313,0.4220422042204221,0.025192918747162958,-0.039584864070536366,-0.9917391304347827
3,-0.00899677474113054,0.0313031303130313,0.4220422042204221,0.03222877893781207,-0.005510653930933138,-0.9949275362318841
4,0.0037345102699032425,0.022802280228022803,0.46724672467246725,0.021334543803903764,0.002847171197648788,-0.9976086956521738
5,0.013240536411475132,0.016201620162016202,0.4973497349734973,0.013466485096081102,0.002847171197648788,-0.9976086956521738
6,0.013240536411475132,0.016201620162016202,0.4973497349734973,0.013466485096081102,0.00799044819985305,-0.9992753623188406
7,0.009166525207944323,0.0089008900890089,0.44974497449744977,-0.004236646996519897,0.013592946362968405,-1.0
8,0.0281785774910881,-0.050505050505050504,0.016401640164016403,-0.41155999394764714,0.013592946362968405,-1.0
9,0.0281785774910881,-0.050505050505050504,0.016401640164016403,-0.41155999394764714,0.41247244673034533,-0.9983333333333334
10,-0.2571719572228824,-0.27562756275627565,0.28212821282128214,-0.32644878196398847,-0.14300146950771492,-0.9889855072463767
11,-0.027329825157019184,-0.5453545354535454,1.0,-0.32644878196398847,-0.14300146950771492,-0.9889855072463767
12,-0.027329825157019184,-0.5453545354535454,1.0,-0.2121349674686034,-0.006796473181484203,-0.9823188405797102
13,0.280258020709557,-0.8025802580258026,1.0,-0.30382811317899827,0.10837619397501838,-0.9718115942028986
14,0.5046681378373791,-1.0,1.0,-0.3384021788470267,0.10837619397501838,-0.9718115942028986
15,0.5046681378373791,-1.0,1.0,-0.3384021788470267,0.12995958853783984,-0.9701449275362318
16,-1.0,-1.0,0.22952295229522954,-0.6686336813436222,-0.4310249816311536,-0.9402898550724637
17,0.5175691733152267,-1.0,-1.0,-1.0,0.1545738427626745,-0.9402898550724637
18,0.5175691733152267,-1.0,-1.0,-1.0,0.1545738427626745,-0.9713043478260869
19,0.2474961806144967,0.12951295129512952,-0.7117711771177119,0.1998032985323044,1.0,-0.9665942028985506
20,-0.23425564420302158,0.5395539553955396,0.15971597159715972,0.5044636102284763,1.0,-0.9665942028985506
21,-0.23425564420302158,0.5395539553955396,0.15971597159715972,0.5044636102284763,-0.2907788390889052,-0.9484782608695651
22,0.020200305550840264,0.5682568256825683,0.07790779077907792,0.6215009835073385,0.12619397501836885,-0.9456521739130435
23,0.12968935664573078,0.4781478147814782,-0.0804080408040804,0.7298380995612044,0.12619397501836885,-0.9456521739130435
24,0.12968935664573078,0.4781478147814782,-0.0804080408040804,0.7298380995612044,0.4306576047024247,-0.9481884057971014

0,-0.0832447750619908,-0.1494149414941494,0.45844584458445853,-0.13240547782077997,-0.09395389299695521,-0.9925968109339408
1,-0.09564293304994687,-0.13971397139713973,0.46194619461946196,-0.1274188746650789,-0.09424387414818038,-0.994874715261959
2,-0.08660998937300743,-0.13971397139713973,0.46194619461946196,-0.1274188746650789,-0.09424387414818038,-0.994874715261959
3,-0.08660998937300743,-0.16251625162516253,0.47754775477547756,-0.13902947305745755,-0.08394954327968682,-0.9977932801822323
4,-0.09351753453772582,-0.15571557155715574,0.44114411441144114,-0.15205418279249774,-0.10816296940698855,-1.0
5,-0.06039674105561459,-0.19851985198519853,0.44114411441144114,-0.15205418279249774,-0.10816296940698855,-1.0
6,-0.06039674105561459,-0.19851985198519853,0.36703670367036706,-0.20035724918130396,-0.0822096563723358,-0.999857630979499
7,-0.14009918526390364,-0.2534253425342534,0.44534453445344535,-0.22060136945519498,-0.09830361026533276,-0.9908883826879271
8,-0.02975557917109458,-0.2534253425342534,0.44534453445344535,-0.22060136945519498,-0.09830361026533276,-0.9908883826879271
9,-0.02975557917109458,-0.29392939293929393,0.46914691469146913,-0.27195593926763917,0.0040597361171523854,-0.9772921412300684
10,-0.05100956429330499,-0.3667366736673668,0.49484948494849484,-0.2832688300089312,-0.05292156009859359,-0.9772921412300684
11,0.07314913212894084,-0.3667366736673668,0.49484948494849484,-0.2832688300089312,-0.05292156009859359,-0.9636247152619591
12,0.07314913212894084,-0.7931793179317932,1.0,-0.2761982732956237,0.04770189937654053,-0.9583570615034169
13,0.24477506199078994,-1.0,1.0,-0.33030663888061923,0.18370305930114542,-0.9488183371298405
14,-1.0,-1.0,1.0,-0.33030663888061923,0.18370305930114542,-0.9488183371298405
15,-1.0,-1.0,0.5405540554055406,-0.5151086632926465,-0.7988980716253444,-0.9329441913439637
16,0.5481756996103436,-0.9987998799879989,-0.8214821482148216,-0.9793837451622506,0.3104248223865449,-0.9329441913439637
17,0.5481756996103436,-0.9987998799879989,-0.8214821482148216,-0.9793837451622506,0.3104248223865449,-0.9577164009111617
18,0.18986893375841304,-0.08130813081308132,-0.7746774677467747,0.49642750818696035,1.0,-0.9666144646924829
19,-0.17481402763018064,0.36613661366136613,-0.38733873387338735,1.0,-0.1860229085109468,-0.9666144646924829
20,-0.17481402763018064,0.36613661366136613,-0.38733873387338735,1.0,-0.1860229085109468,-0.9582858769931664
21,0.08891250442791356,0.4071407140714072,-0.2224222422242224,0.8963233105090801,0.12251703639263448,-0.9555808656036447
22,0.05773999291533829,0.45124512451245125,-0.16161616161616163,0.8963233105090801,0.12251703639263448,-0.9555808656036447
23,0.13266029047113,0.45124512451245125,-0.16161616161616163,0.8155701101518308,0.1926924749891257,-0.954228359908884
24,0.13266029047113,0.4436443644364437,-0.12551255125512553,0.7962935397439713,0.3521821081629694,-0.9534453302961277

0,-0.1398834304746045,-0.19591959195919592,0.44614461446144615,-0.17857410039649887,-0.07349938750510412,-0.9933717579250719
1,-0.1482098251457119,-0.20012001200120014,0.4488448844884489,-0.17992070023191445,-0.07349938750510412,-0.9933717579250719
2,-0.1482098251457119,-0.20012001200120014,0.4488448844884489,-0.17992070023191445,-0.07464271131073907,-0.9946685878962536
3,-0.14716902581182348,-0.20122012201220124,0.438943894389439,-0.183511633126356,-0.07480604328297265,-0.9958213256484149
4,-0.14196502914238135,-0.20022002200220024,0.4302430243024303,-0.18867359916211568,-0.07480604328297265,-0.9958213256484149
5,-0.14196502914238135,-0.20022002200220024,0.4302430243024303,-0.18867359916211568,-0.07578603511637402,-0.9974783861671468
6,-0.1569525395503747,-0.20932093209320932,0.3971397139713972,-0.20363581955562207,-0.08501429154757044,-0.9990634005763687
7,-0.20503746877601997,-0.20782078207820784,0.40724072407240725,-0.20490760828907012,-0.08501429154757044,-0.9990634005763687
8,-0.20503746877601997,-0.20782078207820784,0.40724072407240725,-0.20490760828907012,-0.10632911392405063,-1.0
9,-0.179225645295587,-0.24382438243824384,0.44944494449444944,-0.22765018328719985,-0.10061249489587587,-0.9997118155619595
10,-0.20274771024146546,-0.25312531253125314,0.39303930393039305,-0.24919578065384906,-0.10951408738260514,-0.9939481268011527
11,-0.20274771024146546,-0.25312531253125314,0.39303930393039305,-0.24919578065384906,-0.10951408738260514,-0.9939481268011527
12,0.05245628642797669,-0.3892389238923893,0.41574157415741575,-0.3162265280167577,0.018129848917925684,-0.9896253602305476
13,-0.16382181515403832,-0.37753775377537757,0.38473847384738474,-0.33500411461060825,-0.01976316864026133,-0.9817002881844379
14,-0.1353039134054954,-0.6284628462846286,0.38473847384738474,-0.33500411461060825,-0.01976316864026133,-0.9817002881844379
15,-0.1353039134054954,-0.6284628462846286,0.896989698969897,-0.27612777736216054,-0.027031441404654962,-0.9821325648414985
16,0.179225645295587,-1.0,1.0,-0.32849554873943293,0.06917109024091467,-0.9689481268011527
17,-1.0,-1.0,0.8999899989999,-0.45477668886062694,0.06917109024091467,-0.9689481268011527
18,-1.0,-1.0,0.8999899989999,-0.45477668886062694,-0.34201714985708453,-0.9498559077809797
19,-0.3740632805995004,-0.9207920792079207,-0.8755875587558756,-1.0,-0.11229073091057575,-0.95835734870317
20,0.5661948376353039,-0.1561156115611561,-0.9407940794079408,-1.0,-0.11229073091057575,-0.95835734870317
21,0.5661948376353039,-0.1561156115611561,-0.9407940794079408,-0.3596169671579263,1.0,-0.9721902017291065
22,0.08576186511240633,0.33463346334633465,-0.2806280628062806,0.9046158449913968,0.10943242139648836,-0.9677233429394811
23,0.026644462947543714,0.48084808480848085,-0.2806280628062806,0.9046158449913968,0.10943242139648836,-0.9677233429394811
24,0.026644462947543714,0.48084808480848085,-0.09330933093309332,0.7414528316002096,0.15443037974683543,-0.9598703170028817

0,-0.15294535131298792,-0.20622062206220623,0.4521452145214522,-0.17912501810806897,-0.14794929157345266,-0.9365176566646254
1,-0.15294535131298792,-0.20622062206220623,0.4521452145214522,-0.17912501810806897,-0.1568978374347502,-0.9371300265360277
2,-0.1399929027679205,-0.20852085208520854,0.4421442144214422,-0.18281906417499635,-0.15033557046979867,-0.9378784786010751
3,-0.14442867281760113,-0.21002100210021002,0.4482448244824483,-0.18231203824424164,-0.15242356450410144,-0.9378784786010751
4,-0.14442867281760113,-0.21002100210021002,0.4482448244824483,-0.18231203824424164,-0.15242356450410144,-0.9386949717629449
5,-0.1449609652235628,-0.21192119211921195,0.4381438143814382,-0.1863682456902796,-0.1586875466070097,-0.9394434238279921
6,-0.16944641589779988,-0.21442144214421444,0.3957395739573958,-0.2035346950601188,-0.19597315436241614,-0.9394434238279921
7,-0.16944641589779988,-0.21442144214421444,0.3957395739573958,-0.2035346950601188,-0.19597315436241614,-0.9410083690549093
8,-0.14939673527324343,-0.2297229722972297,0.35143514351435146,-0.25097783572359844,-0.19686800894854586,-0.943253725250051
9,-0.1612845990063875,-0.30393039303930397,0.4876487648764877,-0.25097783572359844,-0.19686800894854586,-0.943253725250051
10,-0.12207239176721078,-0.30393039303930397,0.4876487648764877,-0.2301173402868318,-0.16316181953765846,-0.9420289855072463
11,-0.12207239176721078,-0.34903490349034905,0.41894189418941896,-0.28190641749963785,-0.12885906040268458,-0.9288970538205077
12,-0.020404542228530873,-0.45694569456945694,0.4127412741274128,-0.354918151528321,-0.022818791946308727,-0.9288970538205077
13,-0.19996451383960254,-0.45694569456945694,0.4127412741274128,-0.354918151528321,-0.022818791946308727,-0.9192352180717153
14,-0.19996451383960254,-0.9631963196319633,1.0,-0.30182529335071706,-0.09440715883668904,-0.9036538068993673
15,0.10060326472675657,-1.0,1.0,-0.32464146023468055,0.015063385533184192,-0.9112744097434852
16,-1.0,-1.0,1.0,-0.32464146023468055,0.015063385533184192,-0.9112744097434852
17,-1.0,-1.0,0.38373837383738374,-0.5669998551354484,-1.0,-0.9374702320201401
18,0.37544357700496805,-0.9055905590559056,-0.9256925692569258,-1.0,0.16077554064131244,-0.9867319861196163
19,0.36107168204400286,-0.04490449044904491,-0.9256925692569258,-1.0,0.16077554064131244,-0.9867319861196163
20,0.36107168204400286,-0.04490449044904491,-0.8631863186318632,0.30733014631319716,0.8073079791200597,-1.0
21,-0.16501064584811925,0.4069406940694069,-0.18811881188118812,0.7944372012168622,-0.06413124533929904,-0.9873443559910187
22,-0.05961674946770759,0.5289528952895289,-0.18811881188118812,0.7944372012168622,-0.06413124533929904,-0.9873443559910187
23,-0.05961674946770759,0.5289528952895289,-0.0962096209620962,0.7228016804287991,-0.16435495898583147,-0.9744165475947473
24,0.14779985805535842,0.47804780478047804,-0.06860686068606861,0.7121541358829494,0.5688292319164803,-0.9772062325644689

0,-0.6516556291390729,-0.15231523152315232,0.45784578457845787,-0.15218466611706513,-0.19796091758708578,-0.9230602200347423
1,-0.6516556291390729,-0.14451445144514452,0.45074507450745077,-0.14781533388293489,-0.2172593761378808,-0.9232773595830921
2,-0.5973509933774834,-0.142014201420142,0.46194619461946196,-0.1425391591096455,-0.21337540963709187,-0.9232773595830921
3,-0.5677704194260486,-0.142014201420142,0.46194619461946196,-0.1425391591096455,-0.21337540963709187,-0.9241459177764911
4,-0.5677704194260486,-0.13931393139313933,0.4740474047404741,-0.13182192910140147,-0.18121131205243354,-0.9265344528083381
5,-0.5823399558498896,-0.12581258125812583,0.4191419141914191,-0.13182192910140147,-0.18121131205243354,-0.9265344528083381
6,-0.5823399558498896,-0.12581258125812583,0.4191419141914191,-0.14435284418796374,-0.21228304405874499,-0.925810654313839
7,-0.7368653421633555,-0.13051305130513052,0.30833083308330833,-0.19167353668590273,-0.3292875348950115,-0.9222640416907933
8,-0.39823399558498895,-0.27932793279327933,0.49914991499149913,-0.2451772464962902,-0.3292875348950115,-0.9222640416907933
9,-0.39823399558498895,-0.27932793279327933,0.49914991499149913,-0.2451772464962902,-0.18485253064692317,-0.9119137232194557
10,-0.5227373068432671,-0.31233123312331235,0.3469346934693469,-0.3176422093981863,-0.22332807379536349,-0.9053271569195136
11,-0.6891832229580575,-0.3827382738273828,0.3884388438843885,-0.3656224237427865,-0.20645709430756162,-0.9053271569195136
12,-0.6891832229580575,-0.3827382738273828,0.3884388438843885,-0.3656224237427865,-0.20645709430756162,-0.8951939779965259
13,-0.2927152317880795,-0.3653365336533654,0.31093109310931094,-0.3966199505358615,-0.147712100983129,-0.8872321945570353
14,-0.24503311258278146,-0.4510451045104511,0.3527352735273528,-0.42250618301731246,-0.147712100983129,-0.8872321945570353
15,-0.24503311258278146,-0.4510451045104511,0.3527352735273528,-0.42250618301731246,-0.1366670712465105,-0.8789085118702954
16,-0.7183222958057396,-0.6999699969997,0.93989398939894,-0.33437757625721354,-0.11858235222721203,-0.8736247828604516
17,0.039735099337748346,-1.0,1.0,-0.36578730420445177,-0.11858235222721203,-0.8736247828604516
18,0.039735099337748346,-1.0,1.0,-0.36578730420445177,-0.07124651049884695,-0.8716705269253041
19,-0.6154525386313466,-1.0,1.0,-0.4136850783182193,-0.173686126957155,-0.9005500868558194
20,-0.5355408388520972,-1.0,-0.6687668766876689,-1.0,-0.15681514746935307,-0.9005500868558194
21,-0.5355408388520972,-1.0,-0.6687668766876689,-1.0,-0.15681514746935307,-0.9566444701795019
22,1.0,-0.35243524352435246,-1.0,-0.7141797197032151,1.0,-1.0
23,-0.3924944812362031,0.31773177317731777,-0.31573157315731576,0.8272052761747734,1.0,-1.0
24,-0.3924944812362031,0.31773177317731777,-0.31573157315731576,0.8272052761747734,-0.15499453817210826,-0.9896496815286624

0,-0.32708651122248855,-0.19501950195019502,0.43944394439443946,-0.16990084985835693,-0.13703891586346836,-0.897752732704189
1,-0.3181521028546524,-0.20152015201520151,0.43944394439443946,-0.16990084985835693,-0.13703891586346836,-0.897752732704189
2,-0.3181521028546524,-0.20152015201520151,0.43194319431943196,-0.17606232294617566,-0.14124211899413,-0.8984995586937335
3,-0.3281760732185661,-0.19411941194119414,0.42034203420342037,-0.1745042492917847,-0.1410247119356475,-0.8984995586937335
4,-0.27326214861625625,-0.19881988198819883,0.42034203420342037,-0.1745042492917847,-0.1410247119356475,-0.8987032385090639
5,-0.27326214861625625,-0.19881988198819883,0.368036803680368,-0.2019830028328612,-0.14298137546199,-0.8991105981397245
6,-0.32861189801699714,-0.21782178217821785,0.410941094109411,-0.21352691218130312,-0.14240162330603665,-0.8976169461606356
7,-0.20941381564611025,-0.27742774277427745,0.410941094109411,-0.21352691218130312,-0.14240162330603665,-0.8976169461606356
8,-0.20941381564611025,-0.27742774277427745,0.41244124412441246,-0.24065155807365438,-0.112906732371911,-0.8923212709620477
9,-0.2948354761385923,-0.31553155315531556,0.4000400040004001,-0.276628895184136,-0.12718312921226174,-0.8809830945753275
10,-0.23512747875354106,-0.38123812381238126,0.4000400040004001,-0.276628895184136,-0.12718312921226174,-0.8809830945753275
11,-0.23512747875354106,-0.38123812381238126,0.39833983398339834,-0.3190509915014164,-0.11732734256105515,-0.8676081200353046
12,-0.22074526040531708,-0.44004400440044006,0.44574457445744575,-0.325,-0.10536995434451771,-0.8560662638332542
13,-0.1274787535410765,-0.856985698569857,1.0,-0.325,-0.10536995434451771,-0.8560662638332542
14,-0.1274787535410765,-0.856985698569857,1.0,-0.2936260623229462,-0.035799695630118124,-0.8484622173942563
15,-1.0,-1.0,1.0,-0.3143059490084986,-0.18146242481339225,-0.8446601941747574
16,-0.5258226193070386,-1.0,0.3282328232823283,-0.3143059490084986,-0.18146242481339225,-0.8446601941747574
17,-0.5258226193070386,-1.0,0.3282328232823283,-0.46756373937677054,-0.23704616276541776,-0.904134700251205
18,0.3589017215079538,-1.0,-0.7093709370937095,-1.0,0.06138125951155881,-0.9653744313938489
19,0.6517759860536064,-0.16881688168816883,-0.925992599259926,-1.0,0.06138125951155881,-0.9653744313938489
20,0.6517759860536064,-0.16881688168816883,-0.925992599259926,-0.17351274787535412,1.0,-1.0
21,-0.1712791457833951,0.3953395339533954,-0.2629262926292629,0.8904390934844194,-0.07109210812377709,-0.9900875823205921
22,-0.015689692743517104,0.4588458845884589,-0.060106010601060106,0.8904390934844194,-0.07109210812377709,-0.9900875823205921
23,-0.015689692743517104,0.4588458845884589,-0.060106010601060106,0.7000000000000001,0.0021740705848249872,-0.9820082829791568
24,-0.15297450424929177,0.4838483848384839,-0.16641664166416642,0.7619688385269122,-0.09181824769910862,-0.9768483943241225
