
,aX,aY,aZ,roll,pitch,yaw
0,0.1758175817581758,0.21952195219521953,0.5409659625992197,0.531498244965823,0.39932375316990704,-0.9119869483084321
1,0.16101610161016103,0.21692169216921695,0.5423113144087179,0.5207832994642527,0.39932375316990704,-0.9119869483084321
2,0.15841584158415842,0.21692169216921695,0.5423113144087179,0.5207832994642527,0.3705832628909552,-0.917138931822085
3,0.15841584158415842,0.22192219221922194,0.5288577963137361,0.5364862368372436,0.3514792899408284,-0.9249527734844583
4,0.16181618161816183,0.2208220822082208,0.5404278218754205,0.5327914280435987,0.37447168216398985,-0.9249527734844583
5,0.16181618161816183,0.2208220822082208,0.5404278218754205,0.5327914280435987,0.37447168216398985,-0.9368882019577538
6,0.12631263126312633,0.21672167216721674,0.50369971747612,0.5520044337705523,0.3156382079459003,-0.9565516057015285
7,0.23162316231623165,0.1425142514251425,0.4925332974572851,0.5520044337705523,0.3156382079459003,-0.9565516057015285
8,0.23162316231623165,0.1425142514251425,0.4925332974572851,0.43561795677073706,0.5455621301775149,-0.9805941954319081
9,0.44264426442644267,0.004000400040004,0.5386788645230728,0.0620727877332348,0.7873203719357565,-1.0
10,0.6672667266726673,-0.3353335333533354,0.6750975380061887,-0.4638832440421208,0.7873203719357565,-1.0
11,0.6672667266726673,-0.3353335333533354,0.6750975380061887,-0.4638832440421208,0.9634826711749789,-0.9829125880130517
12,0.87988798879888,-0.6302630263026303,0.7591820260998251,-0.8363199704415296,1.0,-0.8735188047398249
13,0.4263426342634264,-1.0,0.994080452038208,-0.8363199704415296,1.0,-0.8735188047398249
14,0.4263426342634264,-1.0,0.994080452038208,-1.0,0.6035502958579883,-0.7232526189249529
15,-0.6702670267026702,-0.9850985098509851,1.0,-0.9517827452429337,-0.6326289095519865,-0.6160054954490812
16,-0.8831883188318832,-0.6223622362236224,0.8326382348984259,-0.9517827452429337,-0.6326289095519865,-0.6160054954490812
17,-0.8831883188318832,-0.6223622362236224,0.8326382348984259,-0.8963606133382598,-0.9442096365173289,-0.46573930963420923
18,-1.0,-0.18851885188518855,0.8405758105744652,-0.39497506004064287,-0.9577345731191885,-0.3499055469689164
19,0.024002400240024004,-0.05500550055005501,0.660029597739809,-0.39497506004064287,-0.9577345731191885,-0.3499055469689164
20,0.024002400240024004,-0.05500550055005501,0.660029597739809,-0.18012192869019028,-0.15384615384615385,-0.3486175510905032
21,-0.12641264126412644,-0.0023002300230023005,0.6056773846360823,-0.002955847034915943,-0.16855452240067625,-0.34372316675253306
22,-0.19541954195419542,-0.0017001700170017004,0.7127673886721377,-0.002955847034915943,-0.16855452240067625,-0.34372316675253306
23,-0.19541954195419542,-0.0017001700170017004,0.7127673886721377,-0.015148716053944206,-0.2936601859678783,-0.3355658595225829
24,-0.07890789078907891,-0.0019001900190019003,0.5869769944840576,-0.008128579346018842,-0.21048182586644124,-0.33462132921174653

0,0.14401440144014402,0.14141414141414144,0.6302846090080133,0.234924965893588,0.2259334691106585,-0.939108635097493
1,0.12441244124412441,0.14141414141414144,0.6302846090080133,0.234924965893588,0.2259334691106585,-0.9423955431754875
2,0.12441244124412441,0.14311431143114312,0.6265542967670628,0.24120054570259208,0.2128988458927359,-0.9462952646239555
3,0.11401140114011402,0.15231523152315232,0.6289030118817354,0.2533424283765348,0.18560760353021044,-0.9505849582172702
4,0.06820682068206821,0.15231523152315232,0.6289030118817354,0.2533424283765348,0.18560760353021044,-0.9505849582172702
5,0.06820682068206821,0.19921992199219923,0.6431334622823984,0.3068212824010914,0.10061099796334011,-0.9578830083565459
6,0.045604560456045606,0.17361736173617362,0.6248963802155292,0.29427012278308323,0.09287169042769856,-0.9754874651810584
7,0.0854085408540854,0.17361736173617362,0.6248963802155292,0.29427012278308323,0.09287169042769856,-0.9754874651810584
8,0.0854085408540854,0.1352135213521352,0.5705996131528046,0.25839017735334247,0.14419551934826882,-1.0
9,0.19911991199119913,0.00040004000400040005,0.5704614534401768,0.06753069577080492,0.41126951799049555,-1.0
10,0.49334933493349337,0.00040004000400040005,0.5704614534401768,0.06753069577080492,0.41126951799049555,0.973259052924791
11,0.49334933493349337,-0.06890689068906891,0.6224095053882288,-0.10613915416098227,0.6233536999321112,0.9506963788300836
12,0.9939993999399941,-0.44534453445344535,0.49392097264437695,-0.6530695770804911,0.9306177868295995,0.9506963788300836
13,1.0,-0.44534453445344535,0.49392097264437695,-0.6530695770804911,0.9306177868295995,0.9635097493036211
14,1.0,-1.0,0.35064935064935066,-1.0,1.0,-0.9506963788300836
15,-0.3860386038603861,-1.0,1.0,-0.7825375170532061,-0.10848608282416836,-0.8671309192200557
16,-0.7025702570257026,-1.0,1.0,-0.7825375170532061,-0.10848608282416836,-0.8671309192200557
17,-0.7025702570257026,-0.45584558455845586,0.601823708206687,-0.5485675306957708,-0.7262729124236252,-0.7835654596100279
18,-0.8113811381138114,-0.26392639263926393,0.7325227963525837,-0.3860845839017736,-0.7126951799049558,-0.7835654596100279
19,-0.3071307130713072,-0.26392639263926393,0.7325227963525837,-0.3860845839017736,-0.7126951799049558,-0.6957660167130919
20,-0.3071307130713072,-0.08380838083808383,0.6668969328543798,-0.17653478854024557,-0.49083503054989813,-0.6718105849582173
21,-0.0539053905390539,-0.0811081108110811,0.8570046974302294,-0.10804911323328786,-0.49083503054989813,-0.6718105849582173
22,-0.0539053905390539,-0.0811081108110811,0.8570046974302294,-0.10804911323328786,-0.08010862186014936,-0.6744846796657381
23,-0.09230923092309232,-0.001000100010001,0.6609560652113845,-0.021964529331514326,-0.16496945010183298,-0.6742061281337047
24,-0.022702270227022703,-0.12341234123412342,0.5694943354517823,-0.15115961800818556,-0.16496945010183298,-0.6742061281337047

0,0.18481848184818483,0.1277127712771277,0.5207795257102605,0.2920025798129635,0.32300275482093666,0.599180734856008
1,0.18481848184818483,0.1277127712771277,0.5119746419347264,0.2949048693969687,0.41615013774104687,0.5947120158887785
2,0.19701970197019703,0.13781378137813782,0.5353369335524771,0.2674943566591422,0.3799931129476584,0.5948361469712016
3,0.17251725172517252,0.12391239123912393,0.5240666823197934,0.2674943566591422,0.3799931129476584,0.5948361469712016
4,0.17251725172517252,0.12391239123912393,0.5240666823197934,0.27329893582715253,0.34383608815426997,0.5861469712015889
5,0.22282228222822284,0.04530453045304531,0.47969006809110115,0.136568848758465,0.46022727272727276,0.567279046673287
6,0.3413341334133414,0.0038003800380038005,0.47969006809110115,0.136568848758465,0.46022727272727276,0.567279046673287
7,0.3413341334133414,0.0038003800380038005,0.4645456679971824,0.02563689132537891,0.677858126721763,0.5476663356504469
8,0.6001600160016002,-0.30033003300330036,0.4918995069265085,-0.5051596259271203,0.9325068870523415,0.5478525322740814
9,0.7613761376137613,-0.30033003300330036,0.4918995069265085,-0.5051596259271203,0.9325068870523415,0.5478525322740814
10,0.7613761376137613,-0.6870687068706871,0.7036863113406903,-0.789261528539181,0.950068870523416,0.6128351539225422
11,0.5616561656165616,-1.0,0.5693824841512092,-1.0,0.8608815426997245,0.7058714001986097
12,-0.9472947294729473,-1.0,1.0,-1.0,0.8608815426997245,0.7058714001986097
13,-0.9472947294729473,-1.0,1.0,-0.8039342147694292,-0.7164256198347108,0.8144860973187685
14,-1.0,-0.47664766476647663,0.7702512326837285,-0.5606256046436634,-0.9354338842975206,0.8144860973187685
15,-0.735973597359736,-0.47664766476647663,0.7702512326837285,-0.5606256046436634,-0.9354338842975206,0.9205561072492552
16,-0.735973597359736,-0.07590759075907591,0.529114815684433,-0.22138019993550467,-1.0,0.9725049652432969
17,-0.05550555055505551,-0.06050605060506051,0.5037567504108945,-0.1238310222508868,-0.18801652892561985,0.9765392254220456
18,-0.0739073907390739,-0.06050605060506051,0.5037567504108945,-0.1238310222508868,-0.18801652892561985,0.9765392254220456
19,-0.0739073907390739,-0.028502850285028504,0.5576426391171636,-0.05304740406320541,-0.11294765840220386,0.9811941410129096
20,-0.21172117211721175,-0.0138013801380138,0.6301948814275651,-0.02563689132537891,-0.3355716253443526,0.9911246276067527
21,-0.05440544054405441,-0.0138013801380138,0.6301948814275651,-0.02563689132537891,-0.3355716253443526,0.9911246276067527
22,-0.05440544054405441,-0.036203620362036205,0.5369805118572435,-0.04305062882940987,-0.13739669421487605,0.9949106256206555
23,-0.15471547154715473,-0.03500350035003501,0.6179854425921577,-0.05917445985166075,-0.2572314049586777,1.0
24,-0.13891389138913893,-0.03500350035003501,0.6179854425921577,-0.05917445985166075,-0.2572314049586777,1.0

0,0.11681168116811681,0.16471647164716471,0.732086711898064,0.34481021162243874,0.2281460134486071,0.4603348287558814
1,0.10161016101610161,0.17101710171017104,0.732086711898064,0.34481021162243874,0.2281460134486071,0.4603348287558814
2,0.10161016101610161,0.17101710171017104,0.7267913288101936,0.35186429291232785,0.2164585334614153,0.4493927125506073
3,0.10351035103510352,0.17221722172217221,0.729108058911137,0.3567349680886799,0.20909382004482868,0.441076704234599
4,0.06220622062206221,0.18191819181918195,0.729108058911137,0.3567349680886799,0.20909382004482868,0.441076704234599
5,0.06220622062206221,0.18191819181918195,0.7208340228363396,0.3799126637554585,0.1250400256163945,0.4232410548200022
6,0.022802280228022803,0.1931193119311931,0.6725136521595234,0.403594222371515,0.05219340377841818,0.38363059415691
7,0.16621662166216625,0.20512051205120516,0.6725136521595234,0.403594222371515,0.05219340377841818,0.38363059415691
8,0.16621662166216625,0.20512051205120516,0.6653979811351978,0.41518307020490425,0.31988472622478387,0.3152423678739468
9,0.30213021302130216,0.07590759075907591,0.5867946384246235,0.23849512932482364,0.6120717259045789,0.23689681584418426
10,0.4875487548754876,-0.10381038103810382,0.5963925202713883,0.23849512932482364,0.6120717259045789,0.23689681584418426
11,0.4875487548754876,-0.10381038103810382,0.5963925202713883,-0.18542156533422907,0.8727185398655138,0.19444140496772075
12,0.6980698069806981,-0.4717471747174718,0.6721826907165315,-0.7280819617064159,0.9691002241434518,0.22321917058759164
13,0.8153815381538154,-0.7225722572257226,0.6721826907165315,-0.7280819617064159,0.9691002241434518,0.22321917058759164
14,0.8153815381538154,-0.7225722572257226,0.7976170776104584,-0.9343298622774606,0.9748639129042587,0.35966735966735963
15,0.21522152215221524,-1.0,1.0,-1.0,0.4065001601024656,0.5510449720976036
16,-0.5038503850385039,-1.0,0.9968558662915771,-1.0,0.4065001601024656,0.5510449720976036
17,-0.5038503850385039,-1.0,0.9968558662915771,-0.9711118575747397,-0.6934037784181877,0.7425320056899004
18,-1.0,-0.5728572857285729,0.9172596392520271,-0.8325495465233457,-1.0,0.9056789583105372
19,-0.7028702870287029,-0.1186118611861186,0.6091345358265763,-0.8325495465233457,-1.0,0.9056789583105372
20,-0.7028702870287029,-0.1186118611861186,0.6091345358265763,-0.33557272421901246,-0.9849503682356708,1.0
21,-0.1492149214921492,-0.09300930093009302,0.8606652325004137,-0.19062814914343298,-0.20541146333653537,0.966188860925703
22,-0.024502450245024506,-0.03720372037203721,0.8606652325004137,-0.19062814914343298,-0.20541146333653537,0.966188860925703
23,-0.024502450245024506,-0.03720372037203721,0.7845441006122786,-0.07893852872018811,-0.0393852065321806,0.9405843090053616
24,-0.0785078507850785,-0.020902090209020903,0.8676154228032434,-0.034094726234464225,-0.1341658661543388,0.9331436699857752

0,0.0747074707470747,0.18721872187218722,0.7961096374889479,0.3478664192949907,0.15151043288695112,-0.6377855525828359
1,0.0747074707470747,0.18721872187218722,0.7961096374889479,0.3478664192949907,0.15010900031142949,-0.6552788639637785
2,0.052705270527052706,0.19501950195019502,0.7888594164456234,0.36147186147186144,0.12036748676424791,-0.6810043218769294
3,0.05530553055305531,0.19071907190719073,0.7900972590627764,0.35992578849721707,0.12036748676424791,-0.6810043218769294
4,0.05530553055305531,0.19071907190719073,0.7900972590627764,0.35992578849721707,0.08595453129866085,-0.7135213006791521
5,-0.0014001400140014003,0.22442244224422445,0.7389920424403184,0.43181818181818177,0.006228589224540642,-0.7795842766001235
6,0.11071107110711072,0.162016201620162,0.7230769230769232,0.43181818181818177,0.006228589224540642,-0.7795842766001235
7,0.11071107110711072,0.162016201620162,0.7230769230769232,0.3495670995670995,0.25661787605107444,-0.8824861082527269
8,0.21732173217321735,0.062406240624062415,0.7812555260831123,0.1606369820655535,0.4781999377141078,-0.9693352541675242
9,0.5473547354735474,-0.05120512051205121,0.8141467727674625,-0.0740568954854669,0.4781999377141078,-0.9693352541675242
10,0.5204520452045205,-0.05120512051205121,0.8141467727674625,-0.0740568954854669,0.7690750545001558,-1.0
11,0.5204520452045205,-0.20942094209420944,0.8129089301503095,-0.28679653679653677,0.8117408906882592,-0.9143856760650338
12,0.9702970297029703,-0.6895689568956896,1.0,-0.7269635126777984,0.8117408906882592,-0.9143856760650338
13,0.9702970297029703,-0.6895689568956896,1.0,-0.7269635126777984,0.9230769230769231,-0.6363449269396995
14,0.27932793279327933,-1.0,0.8076038903625111,-1.0,0.5602616007474307,-0.27618851615558754
15,-1.0,-0.6882688268826882,0.6875331564986739,-1.0,0.5602616007474307,-0.27618851615558754
16,-1.0,-0.6882688268826882,0.6875331564986739,-0.930890538033395,-0.912799750856431,0.03251697880222268
17,-0.9521952195219522,-0.3888388838883889,0.8072502210433246,-0.6516697588126159,-0.9635627530364373,0.38382383206421067
18,-0.7522752275227523,-0.13191319131913193,0.6247568523430592,-0.6516697588126159,-0.9635627530364373,0.38382383206421067
19,-0.7522752275227523,-0.13191319131913193,0.6247568523430592,-0.34508348794063076,-1.0,0.5497015846882074
20,-0.1568156815681568,-0.07750775077507752,0.9331564986737402,-0.17903525046382188,-0.30115228900654,0.547231940728545
21,-0.14981498149814984,-0.04830483048304831,0.9331564986737402,-0.17903525046382188,-0.30115228900654,0.547231940728545
22,-0.14981498149814984,-0.04830483048304831,0.8330680813439434,-0.08379715522572664,-0.25474929928371226,0.5468203334019345
23,-0.1493149314931493,-0.0097009700970097,0.8843501326259947,-0.032776747062461344,-0.25615073185923387,0.5455855114221033
24,-0.15151515151515152,-0.0319031903190319,0.9048629531388153,-0.032776747062461344,-0.25615073185923387,0.5455855114221033

0,0.07550755075507551,0.18321832183218323,0.6685124214307094,0.3661391361688098,0.1407514450867052,-0.8702910584739096
1,0.09850985098509851,0.18481848184818483,0.6685124214307094,0.3661391361688098,0.1407514450867052,-0.8702910584739096
2,0.09850985098509851,0.18481848184818483,0.6782400478898534,0.3727332673920211,0.13164739884393062,-0.8803426273927104
3,0.04440444044404441,0.19811981198119813,0.6423226578868603,0.40405539070227503,0.09638728323699422,-0.900183550388952
4,0.0334033403340334,0.17971797179717972,0.6423226578868603,0.40405539070227503,0.09638728323699422,-0.900183550388952
5,0.0334033403340334,0.17971797179717972,0.5878479497156541,0.4314210352786021,0.11112716763005781,-0.9323485709291146
6,0.19481948194819484,0.0879087908790879,0.5354684226279558,0.2573359709858226,0.4371387283236994,-0.9697578882964777
7,0.37983798379837985,0.0879087908790879,0.5354684226279558,0.2573359709858226,0.4371387283236994,-0.9697578882964777
8,0.37983798379837985,-0.054605460546054606,0.5966776414247231,-0.05967688757006265,0.6648843930635837,-1.0
9,0.6469646964696469,-0.33293329332933297,0.7737204429811435,-0.4756017144741181,0.7601156069364162,-1.0
10,0.6003600360036004,-0.5414541454145415,0.7737204429811435,-0.4756017144741181,0.7601156069364162,-0.9901232409754392
11,0.6003600360036004,-0.5414541454145415,1.0,-0.6097922848664689,0.6375722543352601,-0.8925793199895115
12,0.6872687268726873,-0.9844984498449846,0.830739299610895,-0.9625783053082757,0.7449421965317918,-0.7397954724237392
13,-0.10401040104010402,-1.0,0.830739299610895,-0.9625783053082757,0.7449421965317918,-0.7397954724237392
14,-0.10401040104010402,-1.0,0.8874588446572883,-1.0,-0.423121387283237,-0.6306266934708505
15,-1.0,-0.39603960396039606,0.9253217599521102,-0.6669963732278272,-0.8735549132947977,-0.4777554409579582
16,-0.7785778577857786,-0.39603960396039606,0.9253217599521102,-0.6669963732278272,-0.8735549132947977,-0.4777554409579582
17,-0.7785778577857786,-0.1931193119311931,0.4298114337024843,-0.5804484009231784,-1.0,-0.39428371645835153
18,-0.3033303330333033,-0.10991099109910991,0.6818317868901528,-0.2387075502802506,-0.5313583815028902,-0.3805611397605104
19,-0.06930693069306931,-0.05210521052105211,0.6818317868901528,-0.2387075502802506,-0.5313583815028902,-0.3805611397605104
20,-0.06930693069306931,-0.05210521052105211,0.7110146662675846,-0.1211671612265084,-0.14653179190751445,-0.3830958832269906
21,-0.12451245124512451,-0.05070507050705071,0.6848249027237354,-0.10435212660731949,-0.21054913294797686,-0.3797744952364304
22,-0.16621662166216625,-0.05070507050705071,0.6848249027237354,-0.10435212660731949,-0.21054913294797686,-0.3797744952364304
23,-0.16621662166216625,-0.0742074207420742,0.6887159533073931,-0.14078470161556214,-0.2797687861271676,-0.37173324010138975
24,-0.18751875187518752,-0.07300730073007301,0.6685124214307094,-0.15908341575997365,-0.3111271676300578,-0.37173324010138975

0,0.06866767436838696,0.22622262226222625,0.5262569832402235,0.4856108909184904,0.11324956258947035,-0.9271426975081015
1,0.06866767436838696,0.22812281228122813,0.5329608938547487,0.4818197484059969,0.1375854938762526,-0.9331210191082803
2,0.04513064133016627,0.23102310231023104,0.5236499068901304,0.4888850594520076,0.097343725147129,-0.9376466644317801
3,0.016303174260418916,0.24092409240924093,0.5236499068901304,0.4888850594520076,0.097343725147129,-0.9376466644317801
4,0.016303174260418916,0.24092409240924093,0.4685288640595904,0.5435119765638463,0.03706060124065532,-0.9462509777628787
5,-0.0061541783632044905,0.24732473247324735,0.46468032278088145,0.5843529209029812,-0.035310959121997776,-0.9640741982344397
6,0.025480457784495786,0.17551755175517553,0.46468032278088145,0.5843529209029812,-0.035310959121997776,-0.9640741982344397
7,0.025480457784495786,0.17551755175517553,0.4608317815021725,0.477511631914527,0.11802131382217274,-1.0
8,0.283308140790326,0.030603060306030605,0.4895096213531968,0.13682577976908497,0.4972164784475903,0.9663649569784335
9,0.573418268192615,0.030603060306030605,0.4895096213531968,0.13682577976908497,0.4972164784475903,0.9663649569784335
10,0.573418268192615,-0.17141714171417144,0.5980136561142149,-0.2908840255040496,0.7424844918084937,0.9405520169851381
11,0.8679550852947527,-0.36863686368636867,0.49832402234636874,-0.7098052731345855,1.0,0.9492680746452118
12,0.829734398618009,-0.36863686368636867,0.49832402234636874,-0.7098052731345855,1.0,0.9492680746452118
13,0.829734398618009,-0.7038703870387039,0.7014276846679082,-0.8797173875581595,0.8811833943057102,-0.9962565649793274
14,0.21399265817318072,-1.0,0.7610180012414649,-1.0,0.8811833943057102,-0.9962565649793274
15,-1.0,-1.0,0.7610180012414649,-1.0,0.36996977890885957,-0.8984802771259359
16,-1.0,-0.9124912491249125,0.7935443823711981,-0.9262450456660348,-0.7814537935422301,-0.8007039892725445
17,-0.997624703087886,-0.40944094409440945,1.0,-0.5311046010684128,-0.8329887068554159,-0.8007039892725445
18,-0.7042755344418052,-0.40944094409440945,1.0,-0.5311046010684128,-0.8329887068554159,-0.7184042909822328
19,-0.7042755344418052,-0.04460446044604461,0.4301675977653631,-0.2002412545235223,-0.9861619214251631,-0.6549335121242598
20,-0.14716044050960916,-0.08340834083408341,0.6538795779019243,-0.1454420127520248,-0.26101479242882136,-0.6420270421276121
21,-0.155150075577629,-0.017001700170017002,0.5705772811918064,-0.1454420127520248,-0.26101479242882136,-0.6420270421276121
22,-0.155150075577629,-0.017001700170017002,0.5705772811918064,-0.05238669653627434,-0.22840782567202164,-0.6321935411777853
23,-0.1791189807816886,-0.03140314031403141,0.6513966480446928,-0.06117525417887299,-0.26037855893112777,-0.6265504525645323
24,-0.11736126106672423,-0.04820482048204821,0.6256983240223464,-0.06117525417887299,-0.26037855893112777,-0.6265504525645323

0,0.047104710471047105,0.19261926192619264,0.5900882552613713,0.3378854005349852,0.09132782719186786,0.7361908477788307
1,0.026302630263026303,0.19981998199819984,0.6008146639511202,0.33971561312121634,0.06464421855146125,0.7342400089181205
2,0.032403240324032405,0.19851985198519853,0.6016293279022403,0.33971561312121634,0.06464421855146125,0.7342400089181205
3,0.032403240324032405,0.19851985198519853,0.6016293279022403,0.34140504012389133,0.07147395171537484,0.7320662170447578
4,0.03350335033503351,0.2004200420042004,0.6029871011541071,0.34323525271012245,0.06766200762388817,0.7308957137283317
5,0.024502450245024506,0.20372037203720375,0.6029871011541071,0.34323525271012245,0.06766200762388817,0.7308957137283317
6,0.024502450245024506,0.20372037203720375,0.5998642226748132,0.3464733211319161,0.050667090216010166,0.7295579956524162
7,0.017401740174017404,0.20752075207520754,0.6013577732518669,0.3537941714768407,0.038278271918678525,0.7267153447410958
8,-0.04820482048204821,0.24422442244224427,0.561439239646979,0.3537941714768407,0.038278271918678525,0.7267153447410958
9,-0.04820482048204821,0.24422442244224427,0.561439239646979,0.4202449669153879,-0.09164548919949174,0.7195808483362132
10,-0.15191519151915192,0.28602860286028603,0.4923285811269517,0.5176685907363087,-0.33767471410419314,0.6986790034000334
11,-0.15321532153215323,0.28602860286028603,0.4923285811269517,0.5176685907363087,-0.33767471410419314,0.6986790034000334
12,-0.15321532153215323,0.1774177417741774,0.46137135098438553,0.3918062790370266,-0.21410419313850063,0.6654590045147986
13,0.45164516451645165,-0.034403440344034406,0.32437202987101155,-0.039138392228635785,0.889294790343075,0.6654590045147986
14,0.9240924092409242,-0.034403440344034406,0.32437202987101155,-0.039138392228635785,0.889294790343075,0.6115601137060365
15,0.9240924092409242,-0.47004700470047006,0.7626612355736592,-0.4968323243699845,1.0,0.604871523326459
16,1.0,-0.9601960196019603,1.0,-0.7388427425031676,0.9021601016518423,0.604871523326459
17,0.13461346134613464,-0.9601960196019603,1.0,-0.7388427425031676,0.9021601016518423,0.6762722256284488
18,0.13461346134613464,-1.0,0.413306177868296,-1.0,0.5022236340533672,0.7738141686639541
19,-1.0,-0.8507850785078508,0.3900882552613713,-0.8789243981416303,-0.95425667090216,0.8574215484086729
20,-0.9450945094509452,-0.8507850785078508,0.3900882552613713,-0.8789243981416303,-0.95425667090216,0.8574215484086729
21,-0.9450945094509452,-0.5372537253725372,0.6999321113374065,-0.692242714346051,-0.9644218551461244,0.9544061089125466
22,-0.5626562656265627,-0.18391839183918393,0.4730482009504413,-0.40926369139800084,-0.9469504447268107,0.9544061089125466
23,-0.3029302930293029,-0.18391839183918393,0.4730482009504413,-0.40926369139800084,-0.9469504447268107,0.9950392954684801
24,-0.3029302930293029,-0.09230923092309232,0.7179904955872369,-0.17893847669998594,-0.38182973316391355,1.0

0,0.06590659065906591,0.21242124212421243,0.49236246698059033,0.3956812652068126,0.12964503605102606,0.5542072008825595
1,0.06590659065906591,0.21242124212421243,0.49236246698059033,0.3956812652068126,0.11383804769828065,0.5550095276301275
2,0.06450645064506451,0.21882188218821882,0.49741587228666595,0.40374087591240876,0.11758180809761508,0.5527028382308695
3,0.04960496049604961,0.21452145214521454,0.4969564718042955,0.3975060827250608,0.11758180809761508,0.5527028382308695
4,0.04960496049604961,0.21452145214521454,0.4969564718042955,0.3975060827250608,0.09317803660565722,0.5483903319626918
5,0.017301730173017303,0.24102410241024105,0.4990237739749627,0.4294403892944038,0.016361619523017193,0.5382609567746465
6,-0.020802080208020803,0.24392439243924394,0.45825198116458027,0.4746046228710462,-0.026206322795341096,0.5382609567746465
7,-0.020802080208020803,0.24392439243924394,0.45825198116458027,0.4746046228710462,-0.026206322795341096,0.515494935312406
8,-0.005700570057005701,0.21032103210321035,0.4450442172964282,0.4502737226277372,0.003189129229062673,0.4774847056463745
9,0.06610661066106611,0.14761476147614763,0.33191684851269093,0.4502737226277372,0.003189129229062673,0.4774847056463745
10,0.06610661066106611,0.14761476147614763,0.33191684851269093,0.4364355231143552,0.19509151414309484,0.4101895496941129
11,0.40584058405840584,-0.058105810581058105,0.31388537957964857,-0.03436739659367396,0.8060177481974486,0.33457025373583393
12,0.732973297329733,-0.24872487248724875,0.6592396922016769,-0.33302919708029194,0.8060177481974486,0.33457025373583393
13,0.732973297329733,-0.24872487248724875,0.6592396922016769,-0.33302919708029194,0.778840820854132,0.32062982649684085
14,0.8795879587958797,-0.7173717371737175,0.8370276788790628,-0.6377737226277371,0.7293399889073766,0.4055761708955972
15,0.7956795679567957,-1.0,0.535546112323418,-0.9580291970802919,0.8179423183582917,0.4055761708955972
16,0.7956795679567957,-1.0,0.535546112323418,-0.9580291970802919,0.8179423183582917,0.5556112726908033
17,-0.27262726272627263,-1.0,1.0,-0.8673965936739658,-0.2940931780366057,0.7311202487212919
18,-1.0,-0.5835583558355836,0.28161249569312047,-1.0,-0.2940931780366057,0.7311202487212919
19,-1.0,-0.5835583558355836,0.28161249569312047,-1.0,-1.0,0.9060274796911043
20,-0.8727872787278728,-0.31413141314131415,0.5766624554955784,-0.5340632603406326,-0.8333333333333333,1.0
21,-0.07790779077907792,-0.1029102910291029,0.5427816699207534,-0.21608880778588807,-0.8333333333333333,1.0
22,-0.07790779077907792,-0.1029102910291029,0.5427816699207534,-0.21608880778588807,-0.1326955074875208,0.9986962190352021
23,-0.07600760076007601,-0.04630463046304631,0.5771218559779488,-0.09443430656934305,-0.08402662229617304,0.9929796409587806
24,-0.12091209120912091,-0.08260826082608261,0.5402549672677157,-0.14765815085158152,-0.17817526344980586,0.9929796409587806

0,0.05990599059905991,0.2283228322832283,0.7414895455330914,0.4220827730464664,0.12274809160305342,-0.40819022457067367
1,0.05990599059905991,0.2283228322832283,0.7414895455330914,0.4220827730464664,0.11954198473282443,-0.4283827137195697
2,0.046804680468046804,0.24032403240324035,0.7318126836011751,0.43343792021515015,0.08213740458015267,-0.4510284959426306
3,0.0305030503050305,0.25672567256725676,0.7420079488508726,0.4530106080980128,0.08213740458015267,-0.4510284959426306
4,0.0305030503050305,0.25672567256725676,0.7420079488508726,0.4530106080980128,0.028702290076335877,-0.4991507831666352
5,-0.052505250525052505,0.26532653265326533,0.7088301365128737,0.4881219184222322,-0.1116030534351145,-0.5682204189469711
6,-0.036103610361036105,0.22822282228222823,0.6645930533955418,0.4782608695652173,-0.06854961832061068,-0.5682204189469711
7,-0.036103610361036105,0.22822282228222823,0.6645930533955418,0.4782608695652173,-0.06854961832061068,-0.6965465182109831
8,0.17101710171017104,0.11321132113211323,0.6457577328494902,0.28552218735992824,0.3137404580152672,-0.8426118135497263
9,0.42744274427442747,-0.052205220522052204,0.6155175393122516,-0.07739429254444942,0.7302290076335878,-0.8426118135497263
10,0.7321732173217321,-0.052205220522052204,0.6155175393122516,-0.07739429254444942,0.7302290076335878,-0.9526325721834308
11,0.7321732173217321,-0.32553255325532554,0.7639536893036116,-0.48304198416255784,0.9161832061068702,-1.0
12,0.9529952995299531,-0.5657565756575658,0.7452911698634872,-0.7609442701329747,1.0,-1.0
13,0.9529952995299531,-0.5657565756575658,0.7452911698634872,-0.7609442701329747,1.0,-0.8790337799584826
14,0.8554855485548556,-1.0,0.7197166061862796,-1.0,0.9920610687022902,-0.5589733912058878
15,-0.04190419041904191,-1.0,1.0,-0.9429254444942476,-0.1218320610687023,-0.5589733912058878
16,-0.04190419041904191,-1.0,1.0,-0.9429254444942476,-0.1218320610687023,-0.2760898282694848
17,-1.0,-0.6233623362336234,0.8437878002419216,-0.8102495144180486,-0.9511450381679389,0.006982449518777127
18,-0.893989398939894,-0.3452345234523453,0.793502678417142,-0.6185567010309277,-0.9511450381679389,0.006982449518777127
19,-0.893989398939894,-0.3452345234523453,0.793502678417142,-0.6185567010309277,-0.9854961832061069,0.26269107378750706
20,-0.4314431443144315,-0.12991299129912992,0.7611888716087782,-0.2823845809054235,-0.6134351145038168,0.3119456501226647
21,-0.12571257125712573,-0.06110611061106111,0.9891135303265942,-0.11683848797250858,-0.1714503816793893,0.3119456501226647
22,-0.12571257125712573,-0.06110611061106111,0.9891135303265942,-0.11683848797250858,-0.1714503816793893,0.2964710322702397
23,-0.09470947094709473,-0.027002700270027005,0.8016243303957146,-0.0679814731809353,-0.19160305343511452,0.2962823174183808
24,-0.1404140414041404,-0.04490449044904491,0.7660273025747365,-0.0824742268041237,-0.26106870229007634,0.2962823174183808

0,0.05440544054405441,0.1786178617861786,0.5263933218757674,0.32971014492753625,0.09005481597494126,-0.7265958745270352
1,0.035903590359035904,0.1938193819381938,0.5395286029953352,0.32971014492753625,0.09005481597494126,-0.7265958745270352
2,0.035903590359035904,0.1938193819381938,0.5395286029953352,0.34842995169082125,0.06953797963978074,-0.7455754912730379
3,-0.04860486048604861,0.2008200820082008,0.5853179474588756,0.35205314009661837,-0.07141738449490993,-0.7672403271085072
4,-0.08230823082308232,0.21192119211921195,0.5494721335624847,0.35205314009661837,-0.07141738449490993,-0.7672403271085072
5,-0.08230823082308232,0.21192119211921195,0.5494721335624847,0.3814915458937198,-0.13202819107282693,-0.7939704625900158
6,0.0201020102010201,0.11931193119311931,0.46599558065308133,0.28215579710144933,0.060610806577916995,-0.8428536555596241
7,0.1495149514951495,0.0893089308930893,0.46599558065308133,0.28215579710144933,0.060610806577916995,-0.8428536555596241
8,0.1495149514951495,0.0893089308930893,0.48048121777559544,0.1917270531400966,0.296319498825372,-0.8943610399121201
9,0.3858385838583858,-0.11431143114311432,0.4625583108274,-0.22041062801932368,0.6704776820673454,-0.9560600512632734
10,0.5994599459945995,-0.38063806380638066,0.4625583108274,-0.22041062801932368,0.6704776820673454,-0.9560600512632734
11,0.5994599459945995,-0.38063806380638066,0.48281365087159345,-0.5807669082125604,0.950195771339076,-1.0
12,1.0,-0.6906690669066907,0.6071691627792782,-0.8022342995169083,1.0,-0.9929818137434395
13,0.9372937293729373,-1.0,0.6071691627792782,-0.8022342995169083,1.0,-0.9929818137434395
14,0.9372937293729373,-1.0,0.7479744659955807,-0.8876811594202899,0.9122944400939702,-0.8996704503844744
15,-0.26012601260126017,-1.0,0.5638350110483673,-1.0,-0.5324980422866092,-0.8081288905162942
16,-1.0,-0.4914491449144915,0.5638350110483673,-1.0,-0.5324980422866092,-0.8081288905162942
17,-1.0,-0.4914491449144915,1.0,-0.5102657004830918,-0.7628817541111981,-0.7013304040034175
18,-0.9654965496549656,-0.13231323132313233,0.6168671740731648,-0.24184782608695654,-0.9061863743148003,-0.63078237519834
19,-0.4320432043204321,-0.13231323132313233,0.6168671740731648,-0.24184782608695654,-0.9061863743148003,-0.63078237519834
20,-0.4320432043204321,-0.039803980398039805,0.5460348637368033,-0.10220410628019323,-0.647141738449491,-0.6101550103747101
21,-0.05570557055705571,-0.026502650265026503,0.6144119813405352,-0.05631038647342996,-0.0913077525450274,-0.6143048944220676
22,-0.10231023102310231,-0.026502650265026503,0.6144119813405352,-0.05631038647342996,-0.0913077525450274,-0.6143048944220676
23,-0.10231023102310231,0.04590459045904591,0.6066781242327524,0.04604468599033817,-0.21895066562255286,-0.6152203100207494
24,-0.07040704070407042,0.0028002800280028006,0.5964890743923399,0.021437198067632852,-0.17321848081440877,-0.6152203100207494

0,0.18441844184418443,0.141014101410141,0.5084210526315789,0.31178829190056134,0.3742253297314477,0.8448825746593215
1,0.19301930193019304,0.1342134213421342,0.5132163742690059,0.2729751403368083,0.37851581121881456,0.8285300086981734
2,0.20072007200720074,0.11261126112611261,0.5132163742690059,0.2729751403368083,0.37851581121881456,0.8285300086981734
3,0.20072007200720074,0.11261126112611261,0.5122807017543859,0.23544506816359262,0.38995709518512633,0.8124673818498117
4,0.21002100210021002,0.12291229122912291,0.5101754385964912,0.24250200481154768,0.3751787700619736,0.7994201217744275
5,0.22842284228422843,0.09320932093209322,0.4906432748538012,0.24250200481154768,0.3751787700619736,0.7994201217744275
6,0.22842284228422843,0.09320932093209322,0.4906432748538012,0.20801924619085807,0.43826473859844267,0.7874746303276313
7,0.26992699269926995,0.05450545054505451,0.49976608187134497,0.12461908580593423,0.4984903861433339,0.7728037112206437
8,0.46964696469646966,-0.1395139513951395,0.5632748538011696,0.12461908580593423,0.4984903861433339,0.7728037112206437
9,0.46964696469646966,-0.1395139513951395,0.5632748538011696,-0.1916599839615076,0.7503575401239472,0.7670629167874747
10,0.8280828082808281,-0.5258525852585259,0.46830409356725144,-0.7826784282277466,1.0,0.8033053058857641
11,1.0,-1.0,0.5849122807017544,-0.7826784282277466,1.0,0.8033053058857641
12,1.0,-1.0,0.5849122807017544,-1.0,0.9647227077705387,0.8991011887503626
13,-0.41934193419341936,-1.0,1.0,-0.7921411387329591,-0.43127284284125217,0.9860829225862571
14,-1.0,-0.5736573657365737,1.0,-0.7921411387329591,-0.43127284284125217,0.9860829225862571
15,-1.0,-0.5736573657365737,0.5265497076023392,-0.7887730553327987,-0.9723502304147466,-1.0
16,-1.0,-0.17711771177117713,0.6426900584795322,-0.40320769847634325,-0.9903066899729859,-0.9243258915627719
17,-0.29162916291629165,-0.08000800080008001,0.6426900584795322,-0.40320769847634325,-0.9903066899729859,-0.9243258915627719
18,-0.29162916291629165,-0.08000800080008001,0.5609356725146198,-0.1714514835605453,-0.45685682504369934,-0.9087851551174254
19,-0.09350935093509351,-0.020802080208020803,0.604093567251462,-0.037369687249398556,-0.13761322103924997,-0.9189330240649464
20,-0.09050905090509052,0.022102210221022104,0.604093567251462,-0.037369687249398556,-0.13761322103924997,-0.9189330240649464
21,-0.09050905090509052,0.022102210221022104,0.5653801169590643,0.043785084202085,-0.22278722389957095,-0.9248477819657873
22,-0.1337133713371337,0.07190719071907191,0.560233918128655,0.12093023255813953,-0.22485301128237725,-0.930530588576399
23,-0.10451045104510451,0.07190719071907191,0.560233918128655,0.12093023255813953,-0.22485301128237725,-0.930530588576399
24,-0.10451045104510451,0.039903990399039906,0.6104093567251462,0.0723336006415397,-0.16621643095502942,-0.9389968106697595

0,0.06510651065106511,0.16941694169416943,0.45855682623216276,0.31360946745562135,0.12234770704996578,0.7824158415841584
1,0.06940694069406941,0.17021702170217023,0.4587592348952535,0.31360946745562135,0.12234770704996578,0.7824158415841584
2,0.06500650065006501,0.17021702170217023,0.4587592348952535,0.313306023365195,0.14373716632443534,0.7814653465346535
3,0.06500650065006501,0.17221722172217221,0.46230138649934216,0.3140646335912608,0.13535249828884327,0.7798811881188118
4,0.0426042604260426,0.18151815181518152,0.4589616435583443,0.3286299499317251,0.13535249828884327,0.7798811881188118
5,0.037903790379037905,0.18151815181518152,0.4589616435583443,0.3286299499317251,0.09017796030116358,0.7780594059405941
6,0.037903790379037905,0.18511851185118514,0.4645278817933407,0.3309057806099226,0.08247775496235456,0.773069306930693
7,-0.029702970297029705,0.21152115211521152,0.4645278817933407,0.3309057806099226,0.08247775496235456,0.773069306930693
8,-0.06950695069506951,0.21152115211521152,0.4577471915797996,0.37414656349567593,-0.046201232032854214,0.7623762376237624
9,-0.06950695069506951,0.21862186218621862,0.4474243497621698,0.39538764982551966,-0.14356605065023959,0.7404356435643564
10,-0.028902890289028906,0.17591759175917593,0.3908511284282967,0.3802154453042027,-0.08162217659137577,0.7404356435643564
11,0.1713171317131713,0.17591759175917593,0.3908511284282967,0.3802154453042027,-0.08162217659137577,0.702019801980198
12,0.1713171317131713,0.11501150115011502,0.4169618459670074,0.25519648004855106,0.2919233401779603,0.648079207920792
13,0.22092209220922093,-0.05200520052005201,0.4673616030766117,0.01805492338036717,0.5049623545516769,0.648079207920792
14,0.5323532353235324,-0.05200520052005201,0.4673616030766117,0.01805492338036717,0.5049623545516769,0.5820198019801981
15,0.5323532353235324,-0.23152315231523152,0.44843639307762373,-0.3629191321499014,0.9223134839151267,0.5292673267326732
16,1.0,-0.7661766176617663,0.6677461795364842,-0.7150659990896678,1.0,0.5393267326732674
17,0.8098809880988099,-1.0,0.4431737678372634,-0.7150659990896678,1.0,0.5393267326732674
18,0.8098809880988099,-1.0,0.4431737678372634,-1.0,0.9601300479123888,0.668118811881188
19,-1.0,-1.0,1.0,-0.7059626763768776,-0.6733401779603012,0.7868514851485149
20,-1.0,-0.3221322132213222,1.0,-0.7059626763768776,-0.6733401779603012,0.7868514851485149
21,-1.0,-0.3221322132213222,0.7314037040785345,-0.48004855105446825,-0.9236824093086926,0.9230891089108911
22,-0.4936493649364937,-0.1145114511451145,0.41261005971055564,-0.28447883477469277,-0.8049281314168378,0.9894653465346535
23,-0.1562156215621562,-0.05240524052405241,0.41261005971055564,-0.28447883477469277,-0.8049281314168378,0.9894653465346535
24,-0.1562156215621562,-0.05240524052405241,0.5565226191681004,-0.09710210893642847,-0.3064681724845996,1.0

0,0.05000500050005001,0.15981598159815982,0.6689818235554899,0.2974366752616411,0.10092961487383798,0.62068345323741
1,0.029602960296029605,0.17671767176717673,0.6577508497118368,0.32595176702563317,0.0702191235059761,0.6017985611510791
2,0.011101110111011102,0.18741874187418742,0.6577508497118368,0.32595176702563317,0.0702191235059761,0.6017985611510791
3,0.011101110111011102,0.18741874187418742,0.6697207034136249,0.3412710450477779,0.007138114209827357,0.5931654676258992
4,-0.0084008400840084,0.20402040204020402,0.6740062065908083,0.3568936751099651,-0.04731075697211155,0.581115107913669
5,-0.07330733073307331,0.21792179217921792,0.6740062065908083,0.3568936751099651,-0.04731075697211155,0.581115107913669
6,-0.07330733073307331,0.21792179217921792,0.670016255356879,0.38556044289397845,-0.15637450199203187,0.5543165467625899
7,-0.15971597159715972,0.23692369236923694,0.659376385399734,0.4125587744577582,-0.30926294820717126,0.5057553956834533
8,-0.13911391139113913,0.20372037203720375,0.659376385399734,0.4125587744577582,-0.30926294820717126,0.5057553956834533
9,-0.13911391139113913,0.20372037203720375,0.5415989360130042,0.42560291217958435,-0.2438579017264276,0.3942446043165468
10,-0.0259025902590259,0.15021502150215021,0.5002216639574405,0.3700894888518125,0.07387118193891103,0.24100719424460432
11,0.29262926292629265,-0.008100810081008101,0.5002216639574405,0.3700894888518125,0.07387118193891103,0.24100719424460432
12,0.29262926292629265,-0.008100810081008101,0.5875572631890055,0.03276202032458668,0.5592629482071713,0.06780575539568345
13,0.6135613561356136,-0.18021802180218022,0.6168169055711541,-0.3004701956620658,0.8854581673306773,-0.11043165467625898
14,0.7394739473947395,-0.2848284828482848,0.6168169055711541,-0.3004701956620658,0.8854581673306773,-0.11043165467625898
15,0.7394739473947395,-0.2848284828482848,0.7665139648293187,-0.45032610344304563,0.9229747675962815,-0.16600719424460433
16,1.0,-0.950895089508951,0.8491207329688193,-0.824207492795389,1.0,-0.0030575539568345324
17,0.3338333833383339,-1.0,0.8491207329688193,-0.824207492795389,1.0,-0.0030575539568345324
18,0.3338333833383339,-1.0,0.5141126052903797,-1.0,0.326527224435591,0.310431654676259
19,-1.0,-1.0,1.0,-0.878507507962991,-0.8920982735723771,0.5802158273381295
20,-1.0,-0.38233823382338233,1.0,-0.878507507962991,-0.8920982735723771,0.5802158273381295
21,-1.0,-0.38233823382338233,0.9168021279739914,-0.5558926133778249,-0.9331009296148738,0.8838129496402878
22,-0.5869586958695869,-0.14581458145814583,0.6728239988177922,-0.2977400273016836,-0.8721779548472776,1.0
23,-0.10241024102410241,-0.0929092909290929,0.7532141273828875,-0.1686637342636129,-0.8721779548472776,1.0
24,-0.10241024102410241,-0.0929092909290929,0.7532141273828875,-0.1686637342636129,-0.225265604249668,0.97931654676259

0,-0.17271727172717272,0.13761376137613762,0.6185776095186588,0.2549454027536003,-0.3894167758846658,-0.2946969696969697
1,-0.17271727172717272,0.14821482148214823,0.6083017847485128,0.27425225510365564,-0.34305373525557015,-0.3482683982683982
2,-0.1915191519151915,0.18171817181718175,0.5651703623580314,0.35939230890963764,-0.4164482306684142,-0.39480519480519477
3,-0.21782178217821785,0.18171817181718175,0.5651703623580314,0.35939230890963764,-0.4164482306684142,-0.39480519480519477
4,-0.21782178217821785,0.19741974197419743,0.5281233098972419,0.418262383288495,-0.4800131061598952,-0.4392857142857143
5,-0.2909290929092909,0.18441844184418443,0.45740941049215794,0.4685868017091312,-0.6123853211009175,-0.5132034632034632
6,-0.16821682168216823,0.18441844184418443,0.45740941049215794,0.4685868017091312,-0.6123853211009175,-0.5132034632034632
7,-0.16821682168216823,0.17471747174717472,0.399269875608437,0.4834625731919608,-0.493610747051114,-0.6048701298701299
8,0.17421742174217425,0.012501250125012502,0.30408328826392644,0.09020414622566862,0.46526867627785057,-0.6048701298701299
9,0.3398339833983398,0.012501250125012502,0.30408328826392644,0.09020414622566862,0.46526867627785057,-0.743073593073593
10,0.3398339833983398,-0.027902790279027905,0.5415089237425635,-0.050007912644405766,0.6638269986893841,-0.8766233766233765
11,0.47124712471247127,-0.13081308130813082,0.8477555435370472,-0.16822282006646624,0.6059960681520314,-0.8766233766233765
12,0.6385638563856386,-0.13081308130813082,0.8477555435370472,-0.16822282006646624,0.6059960681520314,-0.96504329004329
13,0.6385638563856386,-0.23132313231323132,0.7020010816657654,-0.36698844753916765,0.8345347313237221,-1.0
14,0.9856985698569858,-0.6663666366636664,0.8126014061654949,-0.6801709131191644,0.9400393184796855,-1.0
15,0.6230623062306231,-0.6663666366636664,0.8126014061654949,-0.6801709131191644,0.9400393184796855,-0.9520562770562769
16,0.6230623062306231,-1.0,0.7575716603569498,-0.9454027536002533,0.7110091743119266,-0.7751082251082251
17,-0.43944394439443946,-1.0,0.6437263385613846,-1.0,-0.8055373525557012,-0.5857142857142856
18,-1.0,-1.0,0.6437263385613846,-1.0,-0.8055373525557012,-0.5857142857142856
19,-1.0,-0.6536653665366537,1.0,-0.7244817217914228,-0.8519003931847968,-0.42348484848484846
20,-0.6003600360036004,-0.18421842184218423,0.38426176311519744,-0.5310966925146384,-1.0,-0.42348484848484846
21,-0.2631263126312631,-0.18421842184218423,0.38426176311519744,-0.5310966925146384,-1.0,-0.30703463203463205
22,-0.2631263126312631,-0.05330533053305331,0.6260140616549487,-0.15065674948567812,-0.49213630406290954,-0.2998917748917749
23,-0.03140314031403141,0.004600460046004601,0.6595457003785831,-0.029118531413198295,-0.49213630406290954,-0.2998917748917749
24,-0.11691169116911691,0.004600460046004601,0.6595457003785831,-0.029118531413198295,-0.07306684141546527,-0.32359307359307354

0,0.07540754075407541,0.16691669166916695,0.5408676893576223,0.33355437665782495,0.15510471204188483,-0.8323854131816661
1,0.0709070907090709,0.1683168316831683,0.5383509108341323,0.33885941644562334,0.1569044502617801,-0.8340024534403925
2,0.08400840084008401,0.16591659165916592,0.5450623202301055,0.33885941644562334,0.1569044502617801,-0.8340024534403925
3,0.08400840084008401,0.16591659165916592,0.5450623202301055,0.3250994694960212,0.15395942408376964,-0.8350618936099029
4,0.038003800380038005,0.18071807180718072,0.5535714285714286,0.35344827586206895,0.08655104712041885,-0.8355637336901973
5,-0.032803280328032806,0.24212421242124216,0.5731064237775647,0.35344827586206895,0.08655104712041885,-0.8355637336901973
6,-0.032803280328032806,0.24212421242124216,0.5731064237775647,0.4270557029177719,-0.10978403141361257,-0.8385190141630422
7,-0.10541054105410541,0.24602460246024604,0.5335570469798658,0.47795092838196285,-0.23331151832460734,-0.8541318166610907
8,-0.011901190119011902,0.13591359135913592,0.5335570469798658,0.47795092838196285,-0.23331151832460734,-0.8541318166610907
9,-0.011901190119011902,0.13591359135913592,0.4292905081495686,0.36041114058355433,0.023396596858638742,-0.8939444630311141
10,0.19921992199219923,-0.05580558055805581,0.34887344199424736,-0.02984084880636605,0.493782722513089,-0.9448533511765361
11,0.5202520252025203,-0.26002600260026004,0.34887344199424736,-0.02984084880636605,0.493782722513089,-0.9448533511765361
12,0.5202520252025203,-0.26002600260026004,0.46057046979865773,-0.47894562334217505,0.8722185863874347,-1.0
13,0.9995999599959997,-0.5231523152315232,0.6526845637583892,-0.7224801061007957,1.0,0.9877327980372476
14,1.0,-1.0,0.8332933844678811,-0.7224801061007957,1.0,0.9877327980372476
15,1.0,-1.0,0.8332933844678811,-0.960212201591512,0.9638416230366492,-0.9539422326307573
16,0.05040504050405041,-1.0,0.6869606903163951,-1.0,-0.09882198952879581,-0.8564179770268763
17,-1.0,-1.0,1.0,-0.8277519893899205,-0.09882198952879581,-0.8564179770268763
18,-1.0,-1.0,1.0,-0.8277519893899205,-0.7928664921465969,-0.7727779636444742
19,-0.8976897689768978,-0.437943794379438,0.8827900287631831,-0.6346153846153846,-0.868946335078534,-0.6818333890933422
20,-0.5572557255725573,-0.10461046104610462,0.6003116011505274,-0.6346153846153846,-0.868946335078534,-0.6818333890933422
21,-0.08400840084008401,-0.10461046104610462,0.6003116011505274,-0.23955570291777187,-0.6552683246073299,-0.6464257834281254
22,-0.08400840084008401,-0.0089008900890089,0.6427372962607862,-0.03066976127320955,-0.17637434554973822,-0.6462027433924389
23,-0.06920692069206921,-0.007400740074007401,0.4790268456375839,-0.009946949602122016,-0.19077225130890052,-0.6462027433924389
24,-0.08250825082508251,-0.007400740074007401,0.4790268456375839,-0.009946949602122016,-0.19077225130890052,-0.6478197836511654

0,-0.021202120212021204,0.14591459145914593,0.46374637463746377,0.27847896440129455,-0.0476734693877551,0.8792596761082974
1,-0.025202520252025205,0.14301430143014301,0.4634463446344635,0.2783171521035599,-0.053387755102040815,0.8792596761082974
2,-0.035803580358035804,0.14681468146814683,0.4731473147314732,0.2783171521035599,-0.053387755102040815,0.8792596761082974
3,-0.035803580358035804,0.14681468146814683,0.4731473147314732,0.2796116504854369,-0.07559183673469387,0.8786344025511161
4,-0.052505250525052505,0.16841684168416843,0.48514851485148514,0.2972491909385114,-0.11918367346938775,0.8770086913024447
5,-0.23242324232423242,0.20232023202320235,0.5084508450845086,0.34546925566343045,-0.11918367346938775,0.8770086913024447
6,-0.23242324232423242,0.20232023202320235,0.5084508450845086,0.34546925566343045,-0.3676734693877551,0.8726317764021759
7,-0.31683168316831684,0.21152115211521152,0.4586458645864587,0.3991909385113269,-0.5673469387755102,0.849934346276496
8,-0.23132313231323132,0.1187118711871187,0.41004100410041006,0.2839805825242719,-0.5673469387755102,0.849934346276496
9,0.11531153115311531,0.1187118711871187,0.41004100410041006,0.2839805825242719,-0.4997551020408163,0.7987244419433501
10,0.11531153115311531,-0.031203120312031207,0.30813081308130813,-0.03268608414239482,0.37616326530612243,0.7281310573375852
11,0.48304830483048306,-0.09970997099709972,0.36653665366536653,-0.2179611650485437,0.37616326530612243,0.7281310573375852
12,0.48304830483048306,-0.09970997099709972,0.36653665366536653,-0.2179611650485437,0.801795918367347,0.6415306696679797
13,0.546954695469547,-0.2008200820082008,0.36113611361136116,-0.4,0.9325714285714285,0.5853185768773839
14,0.8200820082008201,-0.3999399939994,0.5042504250425043,-0.4,0.9325714285714285,0.5853185768773839
15,0.8200820082008201,-0.3999399939994,0.5042504250425043,-0.6079288025889968,0.9874285714285713,0.5639342212217845
16,0.7924792479247925,-0.7758775877587759,0.581958195819582,-0.8370550161812298,0.9053061224489797,0.6334646407803414
17,0.8207820782078208,-1.0,0.507950795079508,-0.8370550161812298,0.9053061224489797,0.6334646407803414
18,0.8207820782078208,-1.0,0.507950795079508,-1.0,0.8339591836734693,0.7271931470018133
19,-0.6113611361136114,-1.0,1.0,-0.7336569579288027,-0.5307755102040816,0.836616019508535
20,-1.0,-0.6274627462746275,0.6721672167216721,-0.7336569579288027,-0.5307755102040816,0.836616019508535
21,-1.0,-0.6274627462746275,0.6721672167216721,-0.8658576051779935,-0.999673469387755,0.9147752141561933
22,-0.7823782378237825,-0.12441244124412441,0.2542254225422543,-0.42621359223300975,-1.0,0.9963734133683486
23,-0.13891389138913893,-0.011401140114011402,0.5651565156515652,-0.42621359223300975,-1.0,0.9963734133683486
24,-0.13891389138913893,-0.011401140114011402,0.5651565156515652,-0.08333333333333334,-0.291265306122449,1.0
