
,aX,aY,aZ,roll,pitch,yaw
0,-0.1179117911791179,0.0675067506750675,0.6550387596899225,0.10183548606390211,-0.15423548215237082,-0.4612165595576147
1,-0.09570957095709572,0.03930393039303931,0.6512964448008554,0.06145479265805574,-0.1643580181140117,-0.4332685697205201
2,-0.07550755075507551,0.030203020302030203,0.6428762363004545,0.06145479265805574,-0.1643580181140117,-0.4332685697205201
3,-0.07550755075507551,0.030203020302030203,0.6428762363004545,0.05261726716519375,-0.12613212573255195,-0.4081602152144672
4,-0.0017001700170017004,0.03860386038603861,0.6400695001336542,0.05710401087695446,-0.005727224294086308,-0.38006277088626517
5,0.07480748074807482,0.006500650065006501,0.5882117080994387,0.05710401087695446,-0.005727224294086308,-0.38006277088626517
6,0.07480748074807482,0.006500650065006501,0.5882117080994387,0.014276002719238614,0.10375599360681939,-0.3056344343147512
7,-0.04390439043904391,-0.07920792079207921,0.5763164929163326,-0.11801495581237254,-0.05087906233351092,-0.17755193543565986
8,-0.49944994499449946,-0.20182018201820182,0.5763164929163326,-0.11801495581237254,-0.05087906233351092,-0.17755193543565986
9,-0.49944994499449946,-0.20182018201820182,0.7711841753541835,-0.22664853840924545,-0.5435535428875866,-0.06620833956060379
10,-0.8764876487648765,-0.4581458145814582,0.9394546912590218,-0.4285520054384772,-0.7111081513052744,-0.08593633238678823
11,-1.0,-0.826882688268827,0.9394546912590218,-0.4285520054384772,-0.7111081513052744,-0.08593633238678823
12,-1.0,-0.826882688268827,1.0,-0.6255608429639701,-0.724826851358551,-0.28515916903302946
13,-0.1997199719971997,-1.0,0.4059075113605988,-1.0,-0.21976558337773042,-0.5467045284710805
14,0.9780978097809782,-1.0,0.7508687516706763,-0.846770904146839,-0.21976558337773042,-0.5467045284710805
15,0.9780978097809782,-1.0,0.7508687516706763,-0.846770904146839,0.7268247202983484,-0.8082498879091317
16,1.0,-0.33933393339333934,0.3378775728414863,-0.7853161114887831,1.0,-1.0
17,0.38693869386938695,0.08350835083508351,0.7039561614541567,-0.7853161114887831,1.0,-1.0
18,0.38693869386938695,0.08350835083508351,0.7039561614541567,0.04350781781101292,0.47349493873201914,-0.9983560005978179
19,0.11281128112811281,0.18801880188018805,0.45776530339481425,0.3235893949694086,0.14424613745338305,-0.9692123748318636
20,0.07170717071707171,0.1854185418541854,0.45776530339481425,0.3235893949694086,0.14424613745338305,-0.9692123748318636
21,0.07170717071707171,0.1854185418541854,0.6007751937984497,0.3246770904146839,0.14331379861481086,-0.9615901957853834
22,0.09320932093209322,0.13601360136013602,0.6296444800855386,0.2106050305914344,0.13771976558337773,-0.9677178299207891
23,0.15491549154915493,0.15801580158015804,0.6296444800855386,0.2106050305914344,0.13771976558337773,-0.9677178299207891
24,0.15491549154915493,0.15801580158015804,0.5956963378775729,0.26566961250849763,0.28036760788492276,-0.9762367359139141

0,-0.07780778077807782,0.08760876087608761,0.5230208678370322,0.1567688855646971,-0.14960866947621915,0.4284182305630027
1,-0.07780778077807782,0.07970797079707971,0.5246770453792647,0.14270755422587883,-0.1366646598434678,0.436461126005362
2,-0.08430843084308431,0.0784078407840784,0.524456221706967,0.1425579655946148,-0.14840457555689343,0.4447721179624665
3,-0.06450645064506451,0.0784078407840784,0.524456221706967,0.1425579655946148,-0.14840457555689343,0.4447721179624665
4,-0.06450645064506451,0.07820782078207822,0.5215855139670973,0.13956619296933434,-0.12040939193257075,0.45576407506702415
5,-0.027102710271027102,0.06630663066306632,0.5183835707187812,0.1217651458489155,-0.040186634557495486,0.48230563002680965
6,0.022602260226022602,0.06630663066306632,0.5183835707187812,0.1217651458489155,-0.040186634557495486,0.48230563002680965
7,0.022602260226022602,0.041804180418041806,0.49519708512752575,0.08571428571428573,0.027242624924744132,0.5536193029490617
8,-0.0371037103710371,-0.0089008900890089,0.5006072650988187,-0.0070306656694091255,-0.050120409391932574,0.7085790884718499
9,-0.12231223122312232,-0.0089008900890089,0.5006072650988187,-0.0070306656694091255,-0.050120409391932574,0.7085790884718499
10,-0.12231223122312232,-0.04450445044504451,0.5608921276360826,-0.08287210172026926,-0.24397953040337148,0.8793565683646113
11,-0.5431543154315432,-0.17361736173617362,0.7135916970299216,-0.17277486910994766,-0.6145394340758579,1.0
12,-1.0,-0.39683968396839686,0.7135916970299216,-0.17277486910994766,-0.6145394340758579,1.0
13,-1.0,-0.39683968396839686,0.863420558683891,-0.38100224382946896,-0.7695665261890429,0.8214477211796247
14,-1.0,-0.9992999299929993,1.0,-0.667763649962603,-0.770469596628537,0.4284182305630027
15,-0.056405640564056406,-0.9992999299929993,1.0,-0.667763649962603,-0.770469596628537,0.4284182305630027
16,-0.056405640564056406,-1.0,0.3380810422877333,-0.9905759162303666,0.2579771222155328,-0.04075067024128687
17,1.0,-0.9361936193619362,0.4486032902727173,-1.0,0.9462673088500902,-0.4428954423592493
18,0.924892489248925,-0.9361936193619362,0.4486032902727173,-1.0,0.9462673088500902,-0.4428954423592493
19,0.924892489248925,-0.06630663066306632,0.4548967649332009,-0.3489902767389678,1.0,-0.7190348525469169
20,0.33863386338633866,0.14431443144314432,0.4223252732692945,0.24397905759162303,0.6744431065623119,-0.7190348525469169
21,0.10561056105610563,0.14431443144314432,0.4223252732692945,0.24397905759162303,0.6744431065623119,-0.6737265415549598
22,0.10561056105610563,0.23612361236123613,0.4349122225902617,0.46596858638743455,0.19717037928958459,-0.6375335120643433
23,0.13401340134013404,0.1774177417741774,0.46295682897206586,0.46596858638743455,0.19717037928958459,-0.6375335120643433
24,0.18481848184818483,0.1774177417741774,0.46295682897206586,0.35527299925205685,0.30599036724864537,-0.6493297587131367

0,-0.07530753075307531,0.11001100110011001,0.6685464542506696,0.19228627123363967,-0.10852941176470587,0.5288647810925997
1,-0.07530753075307531,0.11001100110011001,0.6685464542506696,0.1817042606516291,-0.12705882352941178,0.5382926514270954
2,-0.06790679067906791,0.1104110411041104,0.665021852530664,0.183932052353105,-0.12088235294117648,0.5512075422962676
3,-0.045204520452045205,0.10671067106710672,0.6465529395178344,0.18226120857699807,-0.12088235294117648,0.5512075422962676
4,0.023802380238023804,0.10671067106710672,0.6465529395178344,0.18226120857699807,-0.0713235294117647,0.5651556244349735
5,0.023802380238023804,0.09310931093109312,0.6853235584378965,0.1610971874129769,0.06558823529411764,0.5970554048818286
6,0.10601060106010601,0.05680568056805681,0.6309037078810094,0.10609857978279032,0.06558823529411764,0.5970554048818286
7,0.002000200020002,0.05680568056805681,0.6309037078810094,0.10609857978279032,0.16838235294117646,0.6791941108097637
8,0.002000200020002,-0.06830683068306831,0.4307063301846891,-0.10776942355889725,-0.004264705882352941,0.7940074906367041
9,-0.41864186418641863,-0.10951095109510951,1.0,-0.10776942355889725,-0.004264705882352941,0.7940074906367041
10,-0.8333833383338334,-0.10951095109510951,1.0,-0.1495405179615706,-0.5175,0.9546687330492056
11,-0.8333833383338334,-0.2804280428042804,0.7143662766107429,-0.36675020885547205,-0.8510294117647058,1.0
12,-1.0,-0.7856785678567857,0.5292541942760467,-0.7069061542745755,-0.8510294117647058,1.0
13,-1.0,-0.7856785678567857,0.5292541942760467,-0.7069061542745755,-0.9148529411764706,0.8456670541133927
14,-0.13391339133913394,-1.0,0.895671789087833,-0.8405736563631301,-0.3902941176470588,0.6196564639028799
15,0.6851685168516852,-0.9984998499849986,0.48413929225997465,-1.0,-0.3902941176470588,0.6196564639028799
16,1.0,-0.9984998499849986,0.48413929225997465,-1.0,0.8872058823529412,0.4259331008652976
17,1.0,-0.28622862286228623,0.5254476244184407,-0.6471734892787524,1.0,0.20973782771535576
18,0.6278627862786279,-0.021902190219021903,0.6368250387706189,-0.10888331940963521,1.0,0.20973782771535576
19,0.20242024202420242,-0.021902190219021903,0.6368250387706189,-0.10888331940963521,0.8388235294117647,0.14529252227818673
20,0.20242024202420242,0.16571657165716572,0.5425066967432679,0.2868281815650237,0.43338235294117644,0.1527831589823066
21,0.13231323132313233,0.1929192919291929,0.6011560693641618,0.35296574770258987,0.43338235294117644,0.1527831589823066
22,0.13231323132313233,0.1929192919291929,0.6011560693641618,0.35296574770258987,0.25632352941176473,0.15601188169959962
23,0.13601360136013602,0.15901590159015902,0.6466939235866346,0.2642717905875801,0.2529411764705882,0.1500710318997804
24,0.13751375137513752,0.16601660166016605,0.6072183843225715,0.2946254525201894,0.2529411764705882,0.1500710318997804

0,-0.19631963196319632,0.0631063106310631,0.6735169800320653,0.1067947247706422,-0.32347083926031295,0.8554677542696917
1,-0.1788178817881788,0.05380538053805381,0.6622941262206675,0.0990538990825688,-0.3081081081081081,0.8607358314215311
2,-0.1713171317131713,0.049104910491049106,0.6655006558810669,0.0990538990825688,-0.3081081081081081,0.8607358314215311
3,-0.1713171317131713,0.049104910491049106,0.6655006558810669,0.0911697247706422,-0.2907539118065434,0.8670235364092107
4,-0.15061506150615062,0.04120412041204121,0.6432006996064714,0.080848623853211,-0.25846372688477953,0.87552043504121
5,-0.11421142114211422,0.0213021302130213,0.6343098673662732,0.049598623853211,-0.20341394025604553,0.87552043504121
6,-0.10581058105810581,0.0213021302130213,0.6343098673662732,0.049598623853211,-0.20341394025604553,0.8944685189905685
7,-0.10581058105810581,-0.010401040104010401,0.6497595102754701,-0.009461009174311927,-0.1813655761024182,0.9356784773557651
8,-0.27232723272327236,-0.0961096109610961,0.7163678764028567,-0.16126720183486237,-0.3746799431009957,0.9356784773557651
9,-0.7975797579757976,-0.0961096109610961,0.7163678764028567,-0.16126720183486237,-0.3746799431009957,0.986235024216161
10,-0.7975797579757976,-0.30523052305230525,0.6958169363066609,-0.3579415137614678,-0.8267425320056899,1.0
11,-1.0,-0.5150515051505151,0.6980032065296604,-0.6255733944954128,-0.9122332859174964,1.0
12,-0.8723872387238725,-0.5150515051505151,0.6980032065296604,-0.6255733944954128,-0.9122332859174964,0.9305803381765655
13,-0.8723872387238725,-1.0,1.0,-0.8041857798165137,-0.7711237553342817,0.7823944260344974
14,0.45754575457545754,-1.0,0.5032794053344993,-1.0,0.7396870554765292,0.6336986999745093
15,1.0,-0.47144714471447147,0.5032794053344993,-1.0,0.7396870554765292,0.6336986999745093
16,1.0,-0.47144714471447147,0.45474420638390906,-0.8337155963302751,1.0,0.5105786387968392
17,0.651965196519652,0.0034003400340034007,0.5604139338288879,-0.06436353211009174,0.8642958748221906,0.45458407681196367
18,0.32463246324632467,0.16531653165316534,0.510129718699898,-0.06436353211009174,0.8642958748221906,0.45458407681196367
19,0.32463246324632467,0.16531653165316534,0.510129718699898,0.3216743119266055,0.5941678520625889,0.450080720537004
20,0.22212221222122214,0.17391739173917392,0.580236117184084,0.34446674311926606,0.4322901849217639,0.44217860480924465
21,0.17771777177717774,0.15111511151115112,0.6484477481416704,0.34446674311926606,0.4322901849217639,0.44217860480924465
22,0.17771777177717774,0.15111511151115112,0.6484477481416704,0.28340022935779813,0.3217638691322902,0.43410655110884533
23,0.19511951195119515,0.16441644164416444,0.6319778457950737,0.2908543577981651,0.34167852062588905,0.4266292803126859
24,0.16711671167116712,0.18741874187418742,0.5739688092114853,0.2908543577981651,0.34167852062588905,0.4266292803126859

0,-0.14811481148114813,0.04780478047804781,0.7332260659694289,0.09644999189495868,-0.27174231332357246,0.9184906150548807
1,-0.15981598159815982,0.04360436043604361,0.7332260659694289,0.09644999189495868,-0.27174231332357246,0.9184906150548807
2,-0.15981598159815982,0.04360436043604361,0.7435237329042639,0.0898038579996758,-0.27730600292825774,0.9199194648308111
3,-0.16611661166116612,0.038203820382038206,0.7251810136765889,0.07926730426325174,-0.2850658857979502,0.9216081054750926
4,-0.14381438143814382,0.038203820382038206,0.7251810136765889,0.07926730426325174,-0.2850658857979502,0.9216081054750926
5,-0.14381438143814382,0.03670367036703671,0.70603378921963,0.07537688442211056,-0.26046852122986824,0.9270637137104631
6,-0.08920892089208922,0.0038003800380038005,0.7016894609814964,0.02723293888798833,-0.15973645680819912,0.9388192505033449
7,-0.11191119111911191,0.0038003800380038005,0.7016894609814964,0.02723293888798833,-0.15973645680819912,0.9388192505033449
8,-0.11191119111911191,-0.07480748074807482,0.7055510860820595,-0.11736099854109257,-0.2601756954612006,0.970253945573813
9,-0.5805580558055805,-0.030103010301030103,1.0,-0.060949910844545305,-0.5947291361639824,1.0
10,-0.8334833483348335,-0.28252825282528254,1.0,-0.060949910844545305,-0.5947291361639824,1.0
11,-0.8334833483348335,-0.28252825282528254,0.8683829444891392,-0.42762198087210246,-0.8398243045387994,0.9662921348314607
12,-1.0,-0.7667766776677668,0.6448913917940466,-0.8905819419679041,-1.0,0.865363382477106
13,-0.2771277127712771,-1.0,0.6448913917940466,-0.8905819419679041,-1.0,0.865363382477106
14,-0.2771277127712771,-1.0,0.8592115848753017,-1.0,-0.5228404099560762,0.7679418068454894
15,0.8784878487848786,-0.7071707170717071,0.7103781174577635,-0.973739666072297,-0.5228404099560762,0.7679418068454894
16,0.7440744074407442,-0.7071707170717071,0.7103781174577635,-0.973739666072297,0.8726207906295754,0.6542833019419367
17,0.7440744074407442,-0.22302230223022304,0.6289621882542237,-0.6060949910844545,0.9354319180087848,0.5517308566603885
18,0.6738673867386739,0.027302730273027303,0.6704746580852776,0.00518722645485492,0.8644216691068815,0.5146457102032863
19,0.21942194219421945,0.027302730273027303,0.6704746580852776,0.00518722645485492,0.8644216691068815,0.5146457102032863
20,0.21942194219421945,0.1559155915591559,0.7004022526146421,0.29794131950072944,0.42489019033674963,0.5131519127102683
21,0.16471647164716471,0.16791679167916793,0.6643604183427192,0.3522450964499919,0.32166910688140554,0.5131519127102683
22,0.13771377137713772,0.16791679167916793,0.6643604183427192,0.3522450964499919,0.32166910688140554,0.5139962330324089
23,0.13771377137713772,0.1936193619361936,0.6613032984714401,0.4080077808396823,0.28594436310395316,0.5141910761836722
24,0.15841584158415842,0.20282028202820285,0.7404666130329848,0.3686172799481277,0.27262079062957545,0.5141910761836722

0,-0.19981998199819984,0.009200920092009202,0.6663143590517893,0.014744384731982915,-0.3678474114441417,0.9915961678525408
1,-0.1774177417741774,0.0072007200720072,0.6874528159444361,0.014744384731982915,-0.3678474114441417,0.9915961678525408
2,-0.1774177417741774,0.0072007200720072,0.6874528159444361,0.011988424968995454,-0.33575537390251287,0.9909798868283937
3,-0.184018401840184,0.010201020102010202,0.6957572097236902,0.017913738459418495,-0.3224341507720254,0.990923861280744
4,-0.17211721172117214,0.014501450145014501,0.6873018269666314,0.017913738459418495,-0.3224341507720254,0.990923861280744
5,-0.17211721172117214,0.014501450145014501,0.6873018269666314,0.024114647926140282,-0.31123221313957006,0.9926606532578856
6,-0.11771177117711772,0.0015001500150015003,0.6771855654537219,0.0086812732534105,-0.2025431425976385,0.9970306459745644
7,-0.028102810281028106,-0.043104310431043104,0.6652574362071568,0.0086812732534105,-0.2025431425976385,0.9970306459745644
8,-0.028102810281028106,-0.043104310431043104,0.6652574362071568,-0.05980432685682789,-0.072661217075386,-1.0
9,-0.15331533153315333,-0.12321232123212322,0.7030046806583119,-0.18175554636902302,-0.24038752649106873,-0.9552355874278671
10,-0.4320432043204321,-0.28272827282728275,0.7573607126679751,-0.18175554636902302,-0.24038752649106873,-0.9552355874278671
11,-0.4320432043204321,-0.28272827282728275,0.7573607126679751,-0.33443571723852833,-0.6544050862851952,-0.9249817916970138
12,-0.9741974197419742,-0.4876487648764877,0.7504152196889627,-0.5527077304671352,-0.8814713896457765,-0.923076923076923
13,-1.0,-0.9609960996099611,0.8689415672655895,-0.5527077304671352,-0.8814713896457765,-0.923076923076923
14,-1.0,-0.9609960996099611,0.8689415672655895,-0.8198980294887696,-0.9514078110808356,-0.9941173174967785
15,-0.010701070107010702,-1.0,0.3644873924203533,-1.0,-0.1952770208900999,0.9247576895064149
16,0.7591759175917592,-0.7607760776077608,1.0,-1.0,-0.1952770208900999,0.9247576895064149
17,0.7591759175917592,-0.7607760776077608,1.0,-0.8081852004960728,0.7715712988192551,0.8267129811193904
18,0.9056905690569058,-0.22212221222122214,0.6041069001962857,-0.46644618988562775,1.0,0.749285674267466
19,0.45124512451245125,0.15131513151315132,0.6041069001962857,-0.46644618988562775,1.0,0.749285674267466
20,0.45124512451245125,0.15131513151315132,0.7114600634153706,0.1880942538238942,0.7145019679079625,0.7048013894335816
21,0.25032503250325033,0.1711171117111711,0.6374754642911067,0.2951632906159571,0.43808658795034816,0.6908510280687994
22,0.23152315231523152,0.17871787178717874,0.5604710856107503,0.2951632906159571,0.43808658795034816,0.6908510280687994
23,0.23152315231523152,0.17871787178717874,0.5604710856107503,0.3534518396031418,0.457160157432637,0.6763964367751695
24,0.16471647164716471,0.17771777177717774,0.6773365544315264,0.3144550089568693,0.3247048138056312,0.6763964367751695

0,-0.142014201420142,0.05530553055305531,0.6660393746381007,0.10034802784222739,-0.2800615858352579,-0.8647591371409412
1,-0.14351435143514352,0.05530553055305531,0.6660393746381007,0.10034802784222739,-0.26866820631254806,-0.8612384039342798
2,-0.14351435143514352,0.0501050105010501,0.6744354371742908,0.09367749419953597,-0.2380292532717475,-0.8564882083379903
3,-0.10141014101410142,0.060106010601060106,0.6579328314997105,0.09672273781902553,-0.17459584295612007,-0.8564882083379903
4,-0.05140514051405141,0.060106010601060106,0.6579328314997105,0.09672273781902553,-0.17459584295612007,-0.8467083938750418
5,-0.05140514051405141,0.014801480148014802,0.640851187029531,0.050174013921113696,-0.08267898383371824,-0.8298871129987705
6,-0.04700470047004701,-0.0388038803880388,0.5801968731905037,-0.06627030162412995,-0.08267898383371824,-0.8298871129987705
7,-0.31713171317131716,-0.0388038803880388,0.5801968731905037,-0.06627030162412995,-0.1434949961508853,-0.7924443947691965
8,-0.31713171317131716,-0.09180918091809182,0.6343370005790389,-0.17821925754060325,-0.5022324865280985,-0.7448306694981558
9,-0.9937993799379939,-0.47014701470147013,1.0,-0.4319895591647332,-0.5022324865280985,-0.7448306694981558
10,-1.0,-0.47014701470147013,1.0,-0.4319895591647332,-0.8195535026943802,-0.7398010506314966
11,-1.0,-0.9911991199119913,0.7644759698899827,-0.8325116009280743,-0.961662817551963,-0.8183748742595284
12,-0.07710771077107711,-1.0,0.5205558772437754,-1.0,-0.961662817551963,-0.8183748742595284
13,0.7486748674867487,-1.0,0.5205558772437754,-1.0,-0.3890685142417244,-0.9022018553705152
14,0.7486748674867487,-0.8520852085208521,0.6242038216560509,-0.9469257540603249,0.874364896073903,-1.0
15,0.9262926292629264,-0.4091409140914091,0.5422698320787493,-0.7430394431554526,0.874364896073903,-1.0
16,0.9262926292629264,-0.4091409140914091,0.5422698320787493,-0.7430394431554526,1.0,0.917178942662345
17,0.4650465046504651,0.0739073907390739,0.706716850028952,0.04292343387470998,0.7505773672055427,0.8863864982675758
18,0.28582858285828583,0.18081808180818082,0.6292704111175449,0.2959686774941996,0.5379522709776751,0.8863864982675758
19,0.039703970397039705,0.18081808180818082,0.6292704111175449,0.2959686774941996,0.5379522709776751,0.8797921090868448
20,0.039703970397039705,0.1758175817581758,0.5538506079907354,0.36470417633410673,0.20138568129330253,0.8801833016653627
21,0.12371237123712371,0.19371937193719374,0.6048060220034742,0.3610788863109049,0.2728252501924557,0.8761037219179614
22,0.15781578157815782,0.19371937193719374,0.6048060220034742,0.3610788863109049,0.2728252501924557,0.8761037219179614
23,0.15781578157815782,0.18791879187918792,0.6030689056166763,0.33874709976798145,0.34611239414934564,0.8689504861964905
24,0.14611461146114613,0.21822182218221822,0.6663288940359005,0.36745939675174016,0.25681293302540414,0.8689504861964905

0,-0.15161516151615162,0.036303630363036306,0.6450560363172081,0.06858471374600407,-0.2730627306273063,-0.6893660271884132
1,-0.13171317131713173,0.022902290229022904,0.6626471839977303,0.04591688462656205,-0.2730627306273063,-0.6893660271884132
2,-0.13171317131713173,0.022902290229022904,0.6626471839977303,0.04591688462656205,-0.23586715867158672,-0.6818701562698515
3,-0.15981598159815982,0.024102410241024105,0.6358348701943538,0.05071200232490556,-0.2783763837638376,-0.6724050311269216
4,-0.15411541154115413,0.0196019601960196,0.6555539792878423,0.03167683812845104,-0.2783763837638376,-0.6724050311269216
5,-0.15411541154115413,0.0196019601960196,0.6555539792878423,0.03167683812845104,-0.2640590405904059,-0.6559522297039767
6,-0.09860986098609861,-0.0167016701670167,0.6138459355937014,-0.02048823016564952,-0.19690036900369004,-0.6331469952991996
7,-0.09010901090109011,-0.10421042104210422,0.6209391403035892,-0.02048823016564952,-0.19690036900369004,-0.6331469952991996
8,-0.09010901090109011,-0.10421042104210422,0.6209391403035892,-0.14850334205172916,-0.181549815498155,-0.6046880955405921
9,-0.41244124412441246,-0.25922592259225924,1.0,-0.2929380993897123,-0.5558671586715866,-0.5633972811586838
10,-1.0,-0.5132513251325133,0.8223861540644063,-0.2929380993897123,-0.5558671586715866,-0.5633972811586838
11,-1.0,-0.5132513251325133,0.8223861540644063,-0.5578320255739612,-0.8705535055350553,-0.57375174691907
12,-1.0,-1.0,0.6930061001560506,-0.8211275791920953,-0.8954981549815498,-0.6776775505018423
13,0.35293529352935293,-1.0,0.579372960703646,-1.0,-0.8954981549815498,-0.6776775505018423
14,0.35293529352935293,-1.0,0.579372960703646,-1.0,0.290479704797048,-0.788845127683903
15,0.9727972797279728,-0.7948794879487949,0.5169527592566322,-0.9639639639639641,0.9629520295202951,-0.8841316224113837
16,0.7185718571857186,-0.25232523252325234,0.41466874734004827,-0.6450159837256613,0.9629520295202951,-0.8841316224113837
17,0.7185718571857186,-0.25232523252325234,0.41466874734004827,-0.6450159837256613,1.0,-0.9571846017024521
18,0.5278527852785279,0.12431243124312431,0.48772875585189396,0.12133100842778263,0.8126937269372694,-0.9817685173421422
19,0.31623162316231623,0.12301230123012302,0.7348560079443893,0.12133100842778263,0.8126937269372694,-0.9817685173421422
20,0.31623162316231623,0.12301230123012302,0.7348560079443893,0.22827666376053476,0.4624354243542435,-0.9951086266039895
21,0.29972997299729975,0.16511651165116514,0.5122712441481061,0.2829119442022668,0.4522509225092251,-0.9999364756701817
22,0.1615161516151615,0.18411841184118413,0.5390835579514826,0.2829119442022668,0.4522509225092251,-0.9999364756701817
23,0.1615161516151615,0.18411841184118413,0.5390835579514826,0.3923278116826504,0.3722509225092251,-1.0
24,0.1697169716971697,0.179017901790179,0.5807916016456235,0.3593432141819239,0.3266420664206642,-1.0

0,-0.10251025102510251,0.06930693069306931,0.8167675021607606,0.10896354909845635,-0.21007441327990842,-0.5800520226029241
1,-0.10251025102510251,0.06170617061706171,0.8031114952463267,0.09962381631858866,-0.17902117916428165,-0.5713516907345951
2,-0.08970897089708972,0.05370537053705371,0.8089887640449438,0.09028408353872097,-0.1478248425872925,-0.5713516907345951
3,-0.06590659065906591,0.05370537053705371,0.8089887640449438,0.09028408353872097,-0.1478248425872925,-0.5588842048614225
4,-0.06590659065906591,0.049104910491049106,0.7702679343128781,0.07925801011804384,-0.11662850601030339,-0.5331419858283254
5,-0.034203420342034205,-0.026802680268026804,0.7056179775280899,-0.013620443637307043,-0.05495134516313681,-0.5331419858283254
6,-0.20802080208020804,-0.026802680268026804,0.7056179775280899,-0.013620443637307043,-0.05495134516313681,-0.4973540227823124
7,-0.20802080208020804,-0.24812481248124812,0.9282627484874676,-0.29796341937994547,-0.38236977676016026,-0.42855861512243254
8,-0.9992999299929993,-0.34803480348034804,0.9526361279170268,-0.4115968348683357,-0.38236977676016026,-0.42855861512243254
9,-1.0,-0.34803480348034804,0.9526361279170268,-0.4115968348683357,-0.8357183743560389,-0.41187550452955424
10,-1.0,-1.0,0.8233362143474503,-0.7074847580749772,-0.8437321121923298,-0.516817651807337
11,0.0023002300230023005,-1.0,0.6366464995678478,-1.0,0.32326846021751576,-0.516817651807337
12,1.0,-1.0,0.6366464995678478,-1.0,0.32326846021751576,-0.6737824020091489
13,1.0,-0.9987998799879989,0.7227312013828868,-0.8893501102607342,0.9320263308528907,-0.8083236164678447
14,1.0,-0.2998299829982998,0.534485738980121,-0.8893501102607342,0.9320263308528907,-0.8083236164678447
15,1.0,-0.2998299829982998,0.534485738980121,-0.6323777403035413,1.0,-0.9465422907884116
16,0.4341434143414341,0.011101110111011102,0.6134831460674157,-0.05746530029835257,0.7769032627361191,-0.9663646963853261
17,0.17251725172517252,0.24672467246724675,0.7049265341400173,0.35672590478661304,0.7769032627361191,-0.9663646963853261
18,0.17251725172517252,0.24672467246724675,0.7049265341400173,0.35672590478661304,0.3397252432741843,-0.9658265315274913
19,0.12581258125812583,0.12821282128212821,1.0,0.16772603450512388,0.1805953062392673,-0.9739886985379855
20,0.14741474147414743,0.11051105110511053,1.0,0.16772603450512388,0.1805953062392673,-0.9739886985379855
21,0.14741474147414743,0.11051105110511053,0.6971477960242005,0.18342197431573484,0.2809101316542645,-0.9822405596914522
22,0.1681168116811681,0.12241224122412242,0.7846153846153846,0.19846932157218836,0.2804808242701775,-0.991479056417616
23,0.10721072107210722,0.12241224122412242,0.7846153846153846,0.19846932157218836,0.2804808242701775,-0.991479056417616
24,0.10721072107210722,0.13251325132513253,0.8041486603284357,0.20949539499286546,0.19562106468231255,-1.0

0,-0.09150915091509151,0.12041204120412041,0.8326306141154904,0.22082159276286517,-0.16923748544819558,-0.5233009708737865
1,-0.09970997099709972,0.12271227122712272,0.8326306141154904,0.22082159276286517,-0.16923748544819558,-0.5233009708737865
2,-0.09970997099709972,0.12271227122712272,0.8357470210815766,0.22527065104552865,-0.1813154831199069,-0.518284789644013
3,-0.07930793079307931,0.11501150115011502,0.8412465627864345,0.20599139848732018,-0.145081490104773,-0.5077669902912622
4,-0.019301930193019304,0.11501150115011502,0.8412465627864345,0.20599139848732018,-0.145081490104773,-0.5077669902912622
5,-0.019301930193019304,0.09740974097409742,0.7789184234647113,0.19650007415097137,-0.005238649592549476,-0.483495145631068
6,0.08010801080108011,0.026202620262026206,0.7409715857011916,0.0912056947946018,0.16952852153667056,-0.4027508090614887
7,0.0025002500250025004,-0.07380738073807382,0.7409715857011916,0.0912056947946018,0.16952852153667056,-0.4027508090614887
8,0.0025002500250025004,-0.07380738073807382,0.8276810265811183,-0.11745513866231647,0.030558789289871945,-0.21990291262135922
9,-0.32343234323432346,-0.15121512151215122,0.8753437213565537,-0.24736764051609073,-0.495197904540163,-0.03511326860841424
10,-0.3738373837383739,-0.28492849284928495,0.8753437213565537,-0.24736764051609073,-0.495197904540163,-0.03511326860841424
11,-0.3738373837383739,-0.28492849284928495,0.8086159486709441,-0.47248998961886396,-0.6060826542491269,0.10453074433656959
12,-0.7514751475147515,-0.39403940394039405,1.0,-0.5226160462702061,-0.7616414435389989,0.14967637540453074
13,-1.0,-0.846984698469847,0.9864344637946839,-0.5226160462702061,-0.7616414435389989,0.14967637540453074
14,-1.0,-0.846984698469847,0.9864344637946839,-0.8043897375055613,-0.9126891734575088,-0.02330097087378641
15,-0.9945994599459946,-1.0,0.6661778185151238,-1.0,-1.0,-0.30647249190938514
16,0.9028902890289029,-1.0,0.846012832263978,-0.9758267833308615,-1.0,-0.30647249190938514
17,0.9028902890289029,-1.0,0.846012832263978,-0.9758267833308615,0.774592549476135,-0.5491909385113268
18,1.0,-0.34863486348634865,0.8016498625114573,-0.6526768500667358,0.9772991850989522,-0.8184466019417476
19,0.3896389638963897,-0.04280428042804281,0.9054078826764437,-0.6526768500667358,0.9772991850989522,-0.8184466019417476
20,0.3896389638963897,-0.04280428042804281,0.9054078826764437,-0.13806910870532405,0.5694121071012807,-0.9294498381877023
21,0.1908190819081908,0.23822382238223824,0.6401466544454629,0.4334865786741806,0.47045983701979044,-0.9762135922330097
22,0.20512051205120516,0.17761776177617764,0.9022914757103575,0.30802313510306983,0.47045983701979044,-0.9762135922330097
23,0.20512051205120516,0.17761776177617764,0.9022914757103575,0.30802313510306983,0.3432770663562282,-0.9956310679611651
24,0.09790979097909791,0.17541754175417543,0.7525206232813932,0.32226012160759304,0.22831781140861465,-1.0

0,0.07530753075307531,0.15061506150615062,0.5705778003041054,0.2625570776255708,0.11577181208053691,-1.0
1,0.07530753075307531,0.15061506150615062,0.5705778003041054,0.254851598173516,0.1438758389261745,-0.9951747997086672
2,0.10881088108810882,0.13801380138013802,0.5723517486061835,0.24115296803652966,0.18470357941834453,-0.9908048069919883
3,0.12511251125112513,0.12821282128212821,0.6092245311708059,0.24115296803652966,0.18470357941834453,-0.9908048069919883
4,0.12511251125112513,0.12821282128212821,0.6092245311708059,0.21361301369863014,0.2167225950782998,-0.979060451565914
5,0.1562156215621562,0.1002100210021002,0.5978205778003041,0.15496575342465754,0.2916666666666667,-0.9523852876911871
6,0.22062206220622063,0.06480648064806481,0.5993411049163709,0.15496575342465754,0.2916666666666667,-0.9523852876911871
7,0.22062206220622063,0.06480648064806481,0.5993411049163709,0.11344178082191782,0.3466163310961969,-0.9105972323379461
8,0.29162916291629165,-0.006300630063006301,0.6476178408514952,-0.0008561643835616438,0.4618288590604027,-0.8294792425345957
9,0.43614361436143617,-0.10131013101310132,0.6476178408514952,-0.0008561643835616438,0.4618288590604027,-0.8294792425345957
10,0.43614361436143617,-0.10131013101310132,0.5211606690319311,-0.21147260273972604,0.30704697986577184,-0.7146758922068464
11,-0.41264126412641267,-0.0674067406740674,0.702863659401926,-0.12828196347031964,-0.44281319910514544,-0.5553532410779315
12,-0.5206520652065207,-0.21252125212521253,0.6098580841358338,-0.12828196347031964,-0.44281319910514544,-0.5553532410779315
13,-0.5206520652065207,-0.21252125212521253,0.6098580841358338,-0.3284817351598174,-0.7111297539149889,-0.4088674435542607
14,-1.0,-0.3138313831383138,1.0,-0.351027397260274,-0.7139261744966444,-0.3613437727603787
15,-1.0,-1.0,0.9901165737455652,-0.351027397260274,-0.7139261744966444,-0.3613437727603787
16,-1.0,-1.0,0.9901165737455652,-0.7070490867579908,-0.7360178970917226,-0.4874362709395484
17,0.029502950295029508,-1.0,0.43005575266092244,-1.0,0.21532438478747204,-0.6239985433357611
18,1.0,-1.0,0.917384693360365,-1.0,0.21532438478747204,-0.6239985433357611
19,1.0,-1.0,0.917384693360365,-0.8972602739726028,0.8249440715883669,-0.783321194464676
20,0.9881988198819883,-0.43294329432943296,0.36682716675114035,-0.8972602739726028,0.8249440715883669,-0.783321194464676
21,0.25752575257525756,-0.43294329432943296,0.36682716675114035,-0.685216894977169,1.0,-0.8765477057538237
22,0.25752575257525756,0.06450645064506451,0.4732640648758236,0.15639269406392695,0.45120246085011195,-0.847869628550619
23,0.23492349234923493,0.26122612261226125,0.5362392295995945,0.3818493150684932,0.3901006711409396,-0.847869628550619
24,0.23492349234923493,0.26122612261226125,0.5362392295995945,0.3818493150684932,0.3901006711409396,-0.8231063364894391

0,-0.0635206893096884,0.11361136113611361,0.7365815931941221,0.19026228082886537,-0.09752946875504602,-0.4984377569478704
1,-0.0635206893096884,0.11361136113611361,0.7365815931941221,0.19402985074626866,-0.11319231390279347,-0.49366880447294853
2,-0.056807935076645624,0.11291129112911291,0.7279195668986852,0.19852195334009562,-0.11044727918617794,-0.49301101792468344
3,-0.0475904218014227,0.11291129112911291,0.7324052590873936,0.1938849442109839,-0.11044727918617794,-0.49301101792468344
4,-0.0475904218014227,0.11291129112911291,0.7324052590873936,0.1938849442109839,-0.08751816567091877,-0.49301101792468344
5,0.013325318104398357,0.08510851085108512,0.7914926527455529,0.14650050717287347,0.006781850476344259,-0.49218878473935207
6,0.1693217112513776,0.04390439043904391,0.8103634957463263,0.14650050717287347,0.006781850476344259,-0.49218878473935207
7,0.1693217112513776,0.04390439043904391,0.8103634957463263,0.059266772931459204,0.2808009042467302,-0.46406840980101954
8,0.17893998597334934,0.0037003700370037006,0.6030935808197989,-0.02492392406897551,0.3925399644760213,-0.3358000328893274
9,-0.18074341248371906,-0.10991099109910991,0.6386697602474865,-0.2096797565570207,0.3925399644760213,-0.3358000328893274
10,-0.18074341248371906,-0.10991099109910991,0.6386697602474865,-0.2096797565570207,-0.3037300177619893,-0.13747738858740338
11,-0.4338242661056006,-0.05780578057805781,0.7407579273008507,-0.08839298652369221,-0.6592927498788955,0.07663213287288274
12,-0.5452359483017734,-0.12841284128412842,0.9136890951276101,-0.15374583393711055,-0.6592927498788955,0.07663213287288274
13,-0.5452359483017734,-0.12841284128412842,0.9136890951276101,-0.15374583393711055,-0.7258194735992249,0.1667488899851998
14,-0.8961025949303677,-0.2915291529152915,0.985460170146945,-0.31980872337342414,-0.8906830292265461,0.10508140108534779
15,-1.0,-0.4716471647164716,1.0,-0.5952760469497174,-0.9325044404973357,0.10508140108534779
16,-1.0,-0.4716471647164716,1.0,-0.5952760469497174,-0.9325044404973357,-0.1679000164446637
17,0.0722372507764753,-1.0,0.48584686774941993,-1.0,0.35362506055223636,-0.4145699720440717
18,0.6500350666265905,-0.30753075307530753,0.5235885537509667,-0.6691783799449355,0.35362506055223636,-0.4145699720440717
19,0.6500350666265905,-0.30753075307530753,0.5235885537509667,-0.6691783799449355,1.0,-0.695280381516198
20,0.5687806832982667,-0.05210521052105211,0.6730085073472544,-0.09085639762353281,0.8194735992249313,-0.8495313270843611
21,0.4192966636609558,0.05620562056205621,0.6516627996906419,0.13911027387335168,0.7245276925561117,-0.8495313270843611
22,0.4192966636609558,0.05620562056205621,0.6516627996906419,0.13911027387335168,0.7245276925561117,-0.9551060680809077
23,0.3167017332932572,0.12101210121012101,0.6105181747873163,0.24807998840747716,0.5900209914419505,-1.0
24,0.2714156898106402,0.12841284128412842,0.6097447795823666,0.28271265034053034,0.5058937510092039,-1.0

0,-0.04700470047004701,0.132013201320132,0.7605142040945883,0.2175749894381073,-0.0721865583649941,-0.19299163179916318
1,-0.03670367036703671,0.1269126912691269,0.7605142040945883,0.2175749894381073,-0.0721865583649941,-0.19299163179916318
2,-0.03670367036703671,0.1269126912691269,0.7779717505157913,0.21433600901281508,-0.05974060002620201,-0.1885460251046025
3,0.012801280128012802,0.1402140214021402,0.7316299000158706,0.236727221518096,0.0019651513166513822,-0.17730125523012552
4,0.032103210321032104,0.08260826082608261,0.7316299000158706,0.236727221518096,0.0019651513166513822,-0.17730125523012552
5,0.032103210321032104,0.08260826082608261,0.5513410569750834,0.17251091395578086,0.10231887855364863,-0.14225941422594143
6,0.14471447144714472,0.032203220322032204,0.7735280114267578,0.04858470637938318,0.20280361587842266,-0.14225941422594143
7,0.11381138113811383,0.032203220322032204,0.7735280114267578,0.04858470637938318,0.20280361587842266,-0.03138075313807531
8,0.11381138113811383,-0.07210721072107211,0.6808443104269164,-0.15969581749049427,0.10900039303026333,0.25862970711297073
9,-0.3446344634463447,-0.08130813081308132,0.783526424377083,-0.11899732432051822,-0.42316258351893093,0.6140167364016736
10,-0.3446344634463447,-0.08130813081308132,0.783526424377083,-0.11899732432051822,-0.42316258351893093,0.6140167364016736
11,-0.41404140414041407,-0.10391039103910392,0.7616251388668466,-0.1743416420222504,-0.5320319664614175,0.9055962343096234
12,-0.7183718371837184,-0.23462346234623466,0.9684177114743693,-0.2772848894521898,-0.5320319664614175,0.9055962343096234
13,-0.7183718371837184,-0.23462346234623466,0.9684177114743693,-0.2772848894521898,-0.6449626621249835,1.0
14,-1.0,-0.5306530653065307,1.0,-0.5575271088579073,-0.7540940652430238,0.8088389121338911
15,-0.8067806780678068,-1.0,0.7765434058086018,-0.906210392902408,-0.7540940652430238,0.8088389121338911
16,-0.8067806780678068,-1.0,0.7765434058086018,-0.906210392902408,-0.6467968033538583,0.35303347280334724
17,0.8231823182318232,-1.0,0.5426122837644818,-1.0,0.7611686099829688,-0.03922594142259414
18,1.0,-0.3577357735773578,0.2916997302015553,-0.7822841853260103,0.7611686099829688,-0.03922594142259414
19,1.0,-0.3577357735773578,0.2916997302015553,-0.7822841853260103,1.0,-0.42756276150627615
20,0.14571457145714573,0.052205220522052204,0.918266941755277,0.10956203351640613,0.23070876457487227,-0.3854602510460251
21,0.29222922292229225,0.14211421142114214,0.6779876210125377,0.24940149274750034,0.23070876457487227,-0.3854602510460251
22,0.29222922292229225,0.14211421142114214,0.6779876210125377,0.24940149274750034,0.4096685444779248,-0.42416317991631797
23,0.12381238123812383,0.157015701570157,0.5789557213140771,0.3386846922968596,0.18917856674963973,-0.4301778242677824
24,0.09380938093809382,0.18441844184418443,0.6771940961752103,0.33023517814392334,0.18917856674963973,-0.4301778242677824

0,-0.06050605060506051,0.04150415041504151,0.7058823529411764,0.0703714451538015,-0.11650641025641026,0.6255044390637611
1,-0.054705470547054706,0.041004100410041,0.6863224507406874,0.07312826465467208,-0.11650641025641026,0.6255044390637611
2,-0.054705470547054706,0.041004100410041,0.6863224507406874,0.07312826465467208,-0.10304487179487179,0.6277912294861447
3,-0.054805480548054814,0.04360436043604361,0.6963900474615274,0.07472431804991295,-0.0983974358974359,0.6304815711595372
4,-0.011001100110011002,0.039903990399039906,0.7050194160793902,0.07095182820661636,-0.0983974358974359,0.6304815711595372
5,-0.011001100110011002,0.039903990399039906,0.7050194160793902,0.07095182820661636,-0.03862179487179487,0.6331719128329297
6,0.08690869086908691,0.007900790079007902,0.7083273407162376,-0.005513639001741149,0.2248397435897436,0.6464891041162227
7,0.15281528152815282,-0.0215021502150215,0.6299439091039838,-0.06616366802089378,0.30673076923076925,0.6464891041162227
8,0.15281528152815282,-0.0215021502150215,0.6299439091039838,-0.06616366802089378,0.30673076923076925,0.6986817325800376
9,-0.1783178317831783,-0.10091009100910091,0.673522220624191,-0.1797736506094022,-0.257051282051282,0.8337368845843421
10,-0.41614161416141615,-0.09260926092609262,0.7921760391198044,-0.1797736506094022,-0.257051282051282,0.8337368845843421
11,-0.7330733073307331,-0.09260926092609262,0.7921760391198044,-0.1553975623911782,-0.6160256410256411,0.9537261232176487
12,-0.7330733073307331,-0.15231523152315232,0.8517186825830576,-0.23737666860127682,-0.8277243589743589,1.0
13,-1.0,-0.44004400440044006,1.0,-0.5249564712710388,-0.8961538461538462,1.0
14,-0.7800780078007801,-1.0,1.0,-0.5249564712710388,-0.8961538461538462,0.8765133171912832
15,-0.7800780078007801,-1.0,0.5857903063425859,-1.0,-0.9262820512820512,0.6747376916868442
16,0.6122612261226122,-1.0,0.5629224795052495,-0.9946314567614625,0.8677884615384616,0.4393327952649986
17,0.8165816581658166,-0.3896389638963897,0.5629224795052495,-0.9946314567614625,0.8677884615384616,0.4393327952649986
18,0.8165816581658166,-0.3896389638963897,0.6220336545376096,-0.6735345327916424,1.0,0.2382297551789077
19,0.5746574657465747,0.03840384038403841,0.6848842226377103,0.04149738827626233,0.771474358974359,0.10707559860102232
20,0.33963396339633967,0.10381038103810382,0.6848842226377103,0.04149738827626233,0.771474358974359,0.10707559860102232
21,0.33963396339633967,0.10381038103810382,0.624910110743564,0.19645966337782936,0.6331730769230769,0.05703524347592144
22,0.31473147314731476,0.1334133413341334,0.5206385732777219,0.2811955890887986,0.660897435897436,0.029055690072639227
23,0.16161616161616163,0.16751675167516752,0.5206385732777219,0.2811955890887986,0.660897435897436,0.029055690072639227
24,0.16161616161616163,0.16751675167516752,0.6008917014238458,0.32211259431224604,0.33749999999999997,0.02569276298089857

0,-0.005600560056005601,0.041486209254615915,0.707117181883537,0.056960375391032325,0.01137609649122807,0.7510373443983402
1,-0.005600560056005601,0.05174378846592204,0.7048166786484544,0.06699687174139729,-0.007675438596491229,0.7496916003140068
2,0.013701370137013703,0.04273991338044222,0.7184759166067577,0.06178310740354536,0.014665570175438599,0.7454300773802848
3,0.0012001200120012002,0.04273991338044222,0.7184759166067577,0.06178310740354536,0.014665570175438599,0.7454300773802848
4,0.0012001200120012002,0.05413722361522681,0.6861250898634076,0.06699687174139729,0.009594298245614035,0.7417292811483682
5,0.014601460146014602,0.06462274903122864,0.7226455787203451,0.08289885297184568,0.02042214912280702,0.7417292811483682
6,0.08830883088308832,0.040460451333485296,0.7226455787203451,0.08289885297184568,0.02042214912280702,0.7358977234495907
7,0.08830883088308832,0.040460451333485296,0.7411933860531992,0.047836287799791447,0.17749451754385964,0.7297297297297296
8,0.28562856285628563,-0.068041942101664,0.6841121495327103,-0.06908237747653806,0.3865131578947369,0.7474486935067849
9,0.07970797079707971,-0.11009801686801915,0.6841121495327103,-0.06908237747653806,0.3865131578947369,0.7474486935067849
10,0.07970797079707971,-0.11009801686801915,0.6454349388928828,-0.15901981230448384,0.026452850877192985,0.8490523718739486
11,-0.4817481748174818,-0.010371552313653979,0.8674335010783609,-0.022549530761209594,-0.5010964912280702,0.9614220029157788
12,-0.8388838883888389,-0.010371552313653979,0.8674335010783609,-0.022549530761209594,-0.5010964912280702,0.9614220029157788
13,-0.8388838883888389,-0.08821518121723274,1.0,-0.07116788321167883,-0.7090186403508772,1.0
14,-1.0,-0.27410531114656944,0.898921639108555,-0.23240354535974972,-0.7960526315789475,1.0
15,-1.0,-0.27410531114656944,0.898921639108555,-0.23240354535974972,-0.7960526315789475,0.9102837277111137
16,-0.47734773477347736,-1.0,0.7716750539180446,-0.7149374348279458,-0.42338267543859653,0.7142536727598968
17,0.7447744774477448,-0.9531570549350353,0.2205607476635514,-1.0,0.9764254385964912,0.7142536727598968
18,0.9496949694969496,-0.9531570549350353,0.2205607476635514,-1.0,0.9764254385964912,0.5179993271279578
19,0.9496949694969496,-0.5061545475267837,0.40388209920920204,-0.7855839416058394,1.0,0.366603117640462
20,0.4782478247824783,0.008889901983131982,0.5882099209202013,-0.019030239833159542,0.6233552631578948,0.366603117640462
21,0.4782478247824783,0.008889901983131982,0.5882099209202013,-0.019030239833159542,0.6233552631578948,0.3126612089267691
22,0.20952095209520952,0.13072714839297928,0.7026599568655644,0.16462460896767467,0.3300438596491228,0.30537176180329706
23,0.17961796179617964,0.11511283337132437,0.60215672178289,0.17075078206465066,0.3225054824561404,0.30537176180329706
24,0.17961796179617964,0.11511283337132437,0.60215672178289,0.17075078206465066,0.3225054824561404,0.2972972972972973

0,0.005100510051005101,0.0804080408040804,0.5300760043431053,0.12210140180793921,0.01035642232683255,0.6005145797598628
1,0.027202720272027206,0.07910791079107911,0.5120521172638437,0.12314948251015329,0.042501681237390725,0.6010291595197256
2,0.07860786078607862,0.054905490549054914,0.5120521172638437,0.12314948251015329,0.042501681237390725,0.6010291595197256
3,0.07860786078607862,0.054905490549054914,0.5247557003257329,0.0801781737193764,0.14821788836583727,0.6063464837049743
4,0.17161716171617164,0.016101610161016102,0.5067318132464713,0.007860605266605529,0.3330195023537324,0.6310463121783877
5,0.2846284628462846,0.016101610161016102,0.5067318132464713,0.007860605266605529,0.3330195023537324,0.6310463121783877
6,0.2846284628462846,-0.15141514151415142,0.4586319218241043,-0.23778330931481723,0.31835911230665775,0.7153516295025729
7,-0.22882288228822883,-0.14511451145114512,0.5172638436482085,-0.20883007991615354,-0.3199731002017485,0.8416809605488851
8,-0.45694569456945694,-0.045504550455045506,0.5172638436482085,-0.20883007991615354,-0.3199731002017485,0.8416809605488851
9,-0.45694569456945694,-0.045504550455045506,0.6248642779587406,-0.0757238307349666,-0.49374579690652326,0.947941680960549
10,-0.21342134213421343,-0.15921592159215922,0.51085776330076,-0.227040482117123,-0.34216543375924685,0.9839622641509435
11,-0.9960996099609961,-0.15921592159215922,0.51085776330076,-0.227040482117123,-0.34216543375924685,0.9839622641509435
12,-0.9960996099609961,-0.29592959295929594,0.7321389793702499,-0.36184986243940787,-0.7338264963012778,1.0
13,-1.0,-0.826882688268827,1.0,-0.5675357002489192,-0.6477471418964358,0.8906518010291595
14,-0.17261726172617264,-1.0,1.0,-0.5675357002489192,-0.6477471418964358,0.8906518010291595
15,-0.17261726172617264,-1.0,0.23431053203040172,-0.9510022271714923,-0.599731002017485,0.7620068610634648
16,0.9186918691869187,-1.0,0.2686210640608035,-1.0,0.9572293207800943,0.6119210977701544
17,1.0,-0.36323632363236324,0.2686210640608035,-1.0,0.9572293207800943,0.6119210977701544
18,1.0,-0.36323632363236324,0.3024972855591748,-0.7459714398008647,1.0,0.49476843910806173
19,0.49874987498749873,0.0477047704770477,0.4042345276872964,0.03615878422638543,0.7354404841963685,0.49476843910806173
20,0.08550855085508552,0.0477047704770477,0.4042345276872964,0.03615878422638543,0.7354404841963685,0.4732418524871355
21,0.08550855085508552,0.20102010201020104,0.36775244299674265,0.30224027250098257,0.1981170141223941,0.4912521440823328
22,0.1854185418541854,0.11721172117211723,0.5542888165038002,0.21302240272500986,0.1981170141223941,0.4912521440823328
23,0.14141414141414144,0.11721172117211723,0.5542888165038002,0.21302240272500986,0.2574310692669805,0.4904802744425386
24,0.14141414141414144,0.14821482148214823,0.47741585233441913,0.24354775317699462,0.23254875588433088,0.4881646655231561
